Folder: pyScattData/cif_pxrd_calculator/txt/iq

Note: README.md
# pyScattData
Processing, analysis, and plotting of scattering data.

If you encounter any bugs or have suggestions for new code or functionalities,
please post an issue here on GitHub. If you refer to a specific script, please
include that in the title of the issue.

Go explore the Bragg peaks and whatever might be hidden underneath them!

## Setup and installation
The following guidelines assume that the user runs a conda distribution, i.e.,
Anaconda or Miniconda. If these guidelines are followed, all dependencies for
the `pyScattData` code will be installed.

### Create a new `pyscattdata` conda environment
- It is highly recommended to run the code in a conda environment dedicated to
  the pyScattData library. If the user does not already have that, such a conda
  environment, called `pyscattdata` and using the latest Python 3 version, can
  be created from:
  ```shell
  conda create -n pyscattdata python=3
  ```

### Activate `pyscattdata` conda environment
- When the user has a `pyscattdata` conda environment, the user should activate
  the pyscattdata conda environment:
  ```shell
  conda activate pyscattdata
  ```

### Install dependencies
- Navigate to the main `pyScattData` directory. Using conda, dependencies
  present in the `run.txt` file in the `requirements` directory will be
  installed from the `conda-forge` channel, when running (NB: this might take
  some time - consider to go for a coffee...):
  ```shell
  conda install -c conda-forge --file requirements/run.txt
  ```
- Using pip, additional dependencies present in the `pip_requirements.txt` file
  in the `requirements` directory will be installed, when running:
  ```shell
  pip install -r requirements/pip_requirements.txt
  ```
- If running on a Unix-based OS (MacOS or Linux), additional dependencies
  present in the `diffpy_extras.txt` file in the `requirements` directory will
  be installed, when running:
  ```shell
  pip install -r requirements/diffpy_extras.txt
  ```
  Unfortunately, these diffpy packages are not available for Windows users.

Now, all `pyScattData` dependencies are installed for the `pyscattdata` conda
environment. You are now ready to run the code present in the `pyScattData`
repository.

File: li0.5tio2_Imma_36449.txt
# Q [Å^-1]	I_scaled [a.u.]
0.000000e+00	0.000000e+00
2.657864e-02	0.000000e+00
5.315727e-02	0.000000e+00
7.973589e-02	0.000000e+00
1.063145e-01	0.000000e+00
1.328931e-01	0.000000e+00
1.594717e-01	0.000000e+00
1.860502e-01	0.000000e+00
2.126287e-01	0.000000e+00
2.392071e-01	0.000000e+00
2.657855e-01	0.000000e+00
2.923639e-01	0.000000e+00
3.189422e-01	0.000000e+00
3.455204e-01	0.000000e+00
3.720986e-01	0.000000e+00
3.986767e-01	0.000000e+00
4.252547e-01	0.000000e+00
4.518327e-01	0.000000e+00
4.784105e-01	0.000000e+00
5.049883e-01	0.000000e+00
5.315660e-01	0.000000e+00
5.581435e-01	0.000000e+00
5.847210e-01	0.000000e+00
6.112983e-01	0.000000e+00
6.378756e-01	0.000000e+00
6.644527e-01	1.796685e-42
6.910297e-01	4.217160e-32
7.176065e-01	1.208725e-38
7.441832e-01	0.000000e+00
7.707598e-01	0.000000e+00
7.973362e-01	0.000000e+00
8.239125e-01	0.000000e+00
8.504886e-01	0.000000e+00
8.770645e-01	0.000000e+00
9.036403e-01	0.000000e+00
9.302159e-01	0.000000e+00
9.567913e-01	0.000000e+00
9.833665e-01	0.000000e+00
1.009942e+00	0.000000e+00
1.036516e+00	0.000000e+00
1.063091e+00	0.000000e+00
1.089666e+00	0.000000e+00
1.116240e+00	0.000000e+00
1.142814e+00	0.000000e+00
1.169388e+00	0.000000e+00
1.195961e+00	0.000000e+00
1.222535e+00	0.000000e+00
1.249108e+00	0.000000e+00
1.275681e+00	0.000000e+00
1.302253e+00	0.000000e+00
1.328826e+00	0.000000e+00
1.355398e+00	0.000000e+00
1.381970e+00	6.030460e-03
1.408541e+00	1.420249e-07
1.435113e+00	0.000000e+00
1.461684e+00	0.000000e+00
1.488254e+00	0.000000e+00
1.514825e+00	9.793129e-41
1.541395e+00	1.341669e-32
1.567965e+00	2.244547e-41
1.594535e+00	0.000000e+00
1.621104e+00	1.882576e-42
1.647673e+00	1.016401e-32
1.674242e+00	6.838271e-04
1.700810e+00	3.884322e-02
1.727378e+00	0.000000e+00
1.753946e+00	0.000000e+00
1.780513e+00	1.058883e-01
1.807080e+00	2.049125e-04
1.833647e+00	0.000000e+00
1.860213e+00	0.000000e+00
1.886779e+00	0.000000e+00
1.913344e+00	0.000000e+00
1.939910e+00	0.000000e+00
1.966475e+00	0.000000e+00
1.993039e+00	0.000000e+00
2.019603e+00	0.000000e+00
2.046167e+00	4.846103e-41
2.072730e+00	1.074994e-31
2.099293e+00	9.156751e-35
2.125856e+00	1.658558e-42
2.152418e+00	8.117019e-32
2.178979e+00	4.850894e-38
2.205541e+00	0.000000e+00
2.232101e+00	1.759850e-72
2.258662e+00	1.156330e-64
2.285222e+00	9.277853e-74
2.311781e+00	0.000000e+00
2.338340e+00	1.191068e-38
2.364899e+00	4.140682e-32
2.391457e+00	1.757788e-42
2.418015e+00	0.000000e+00
2.444572e+00	0.000000e+00
2.471129e+00	0.000000e+00
2.497685e+00	0.000000e+00
2.524241e+00	0.000000e+00
2.550797e+00	0.000000e+00
2.577352e+00	1.929098e-03
2.603906e+00	1.333573e-03
2.630460e+00	3.984472e-06
2.657013e+00	7.596743e-02
2.683566e+00	6.222371e-11
2.710118e+00	0.000000e+00
2.736670e+00	0.000000e+00
2.763221e+00	5.160441e-03
2.789772e+00	3.567380e-03
2.816322e+00	0.000000e+00
2.842872e+00	0.000000e+00
2.869421e+00	0.000000e+00
2.895970e+00	0.000000e+00
2.922518e+00	0.000000e+00
2.949065e+00	0.000000e+00
2.975612e+00	0.000000e+00
3.002159e+00	0.000000e+00
3.028704e+00	0.000000e+00
3.055250e+00	8.453070e-10
3.081794e+00	5.034704e-01
3.108338e+00	3.661784e-09
3.134882e+00	5.925236e-40
3.161424e+00	9.541850e-33
3.187967e+00	8.455558e-34
3.214508e+00	2.339617e-35
3.241049e+00	3.056879e-34
3.267590e+00	0.000000e+00
3.294129e+00	1.754402e-01
3.320668e+00	1.981642e-06
3.347207e+00	2.641211e-40
3.373745e+00	9.586228e-04
3.400282e+00	4.707383e-08
3.426818e+00	0.000000e+00
3.453354e+00	7.036973e-35
3.479889e+00	1.737970e-32
3.506424e+00	1.177662e-34
3.532958e+00	0.000000e+00
3.559491e+00	1.584023e-01
3.586023e+00	6.995551e-03
3.612555e+00	1.627754e-43
3.639086e+00	1.832396e-33
3.665617e+00	2.518889e-40
3.692146e+00	3.377351e-04
3.718675e+00	4.412753e-03
3.745203e+00	5.314064e-35
3.771731e+00	2.031818e-09
3.798258e+00	6.402849e-02
3.824784e+00	5.590773e-05
3.851309e+00	2.878683e-02
3.877834e+00	2.096971e-37
3.904358e+00	1.373333e-31
3.930881e+00	1.199139e-41
3.957403e+00	0.000000e+00
3.983925e+00	0.000000e+00
4.010446e+00	0.000000e+00
4.036966e+00	0.000000e+00
4.063485e+00	1.030899e-02
4.090004e+00	1.164428e-07
4.116521e+00	2.670556e-38
4.143038e+00	1.465094e-01
4.169554e+00	3.502679e-03
4.196070e+00	1.020401e-01
4.222584e+00	8.187218e-11
4.249098e+00	0.000000e+00
4.275611e+00	0.000000e+00
4.302123e+00	1.591233e-02
4.328634e+00	1.338720e-04
4.355145e+00	0.000000e+00
4.381654e+00	0.000000e+00
4.408163e+00	0.000000e+00
4.434671e+00	6.793336e-32
4.461178e+00	8.946278e-33
4.487684e+00	2.100476e-10
4.514190e+00	2.608525e-01
4.540694e+00	3.955775e-09
4.567198e+00	2.774537e-32
4.593700e+00	1.313682e-34
4.620202e+00	3.227751e-33
4.646703e+00	6.434727e-12
4.673203e+00	3.474104e-02
4.699702e+00	2.533517e-09
4.726201e+00	4.403530e-03
4.752698e+00	4.633504e-05
4.779194e+00	7.494505e-33
4.805690e+00	3.024744e-35
4.832185e+00	1.376953e-33
4.858678e+00	1.019385e-31
4.885171e+00	2.408720e-39
4.911663e+00	6.542514e-04
4.938154e+00	4.099778e-03
4.964644e+00	2.562311e-32
4.991132e+00	1.113776e-02
5.017620e+00	4.367197e-04
5.044108e+00	3.011132e-04
5.070594e+00	2.832984e-02
5.097079e+00	4.457039e-02
5.123563e+00	1.699811e-04
5.150046e+00	1.739882e-08
5.176528e+00	4.376373e-03
5.203009e+00	1.137038e-08
5.229489e+00	1.339397e-32
5.255968e+00	9.741548e-41
5.282447e+00	2.945406e-05
5.308924e+00	3.612883e-02
5.335400e+00	5.616216e-09
5.361875e+00	1.782253e-02
5.388349e+00	4.295326e-07
5.414822e+00	1.640646e-37
5.441294e+00	1.286725e-31
5.467765e+00	0.000000e+00
5.494235e+00	0.000000e+00
5.520703e+00	4.724706e-33
5.547171e+00	1.183237e-02
5.573638e+00	6.409886e-08
5.600104e+00	1.320568e-34
5.626568e+00	6.766884e-05
5.653032e+00	4.677903e-05
5.679494e+00	6.785887e-33
5.705955e+00	1.963177e-05
5.732415e+00	2.325125e-03
5.758874e+00	2.041636e-08
5.785332e+00	7.829973e-03
5.811789e+00	4.047702e-37
5.838245e+00	4.518163e-33
5.864700e+00	1.012539e-02
5.891153e+00	2.979875e-04
5.917606e+00	0.000000e+00
5.944057e+00	0.000000e+00
5.970507e+00	1.029767e-06
5.996956e+00	1.617645e-02
6.023404e+00	1.397391e-07
6.049850e+00	5.670483e-02
6.076296e+00	1.626002e-02
6.102740e+00	0.000000e+00
6.129183e+00	5.398583e-05
6.155625e+00	4.388266e-03
6.182066e+00	5.384641e-04
6.208506e+00	2.139019e-06
6.234944e+00	9.594911e-33
6.261381e+00	7.386257e-36
6.287817e+00	0.000000e+00
6.314252e+00	2.197678e-04
6.340685e+00	1.791835e-03
6.367118e+00	1.507488e-05
6.393549e+00	5.150205e-10
6.419979e+00	3.386135e-02
6.446408e+00	2.788641e-03
6.472835e+00	1.183907e-03
6.499261e+00	3.117517e-33
6.525686e+00	4.120968e-33
6.552110e+00	1.656755e-33
6.578532e+00	1.536382e-07
6.604953e+00	1.355332e-02
6.631373e+00	2.359814e-06
6.657792e+00	1.761106e-02
6.684209e+00	8.239608e-09
6.710625e+00	1.106157e-02
6.737040e+00	7.961455e-05
6.763454e+00	3.893703e-02
6.789866e+00	3.803395e-02
6.816277e+00	1.272201e-02
6.842686e+00	0.000000e+00
6.869095e+00	0.000000e+00
6.895501e+00	1.033747e-06
6.921907e+00	2.315049e-03
6.948311e+00	7.376842e-04
6.974714e+00	1.036233e-05
7.001116e+00	5.335555e-03
7.027516e+00	1.651071e-32
7.053915e+00	2.072821e-33
7.080313e+00	1.476144e-03
7.106709e+00	5.956935e-06
7.133104e+00	2.943546e-04
7.159497e+00	1.429788e-01
7.185889e+00	1.933107e-10
7.212280e+00	3.737888e-07
7.238669e+00	8.367282e-04
7.265057e+00	5.056682e-02
7.291444e+00	1.346983e-02
7.317829e+00	2.608960e-03
7.344213e+00	1.719749e-10
7.370595e+00	0.000000e+00
7.396976e+00	2.908593e-05
7.423355e+00	2.450665e-04
7.449733e+00	1.038531e-04
7.476110e+00	1.345765e-02
7.502485e+00	3.058620e-07
7.528859e+00	2.698141e-02
7.555231e+00	1.577987e-37
7.581602e+00	1.311679e-04
7.607971e+00	3.839970e-03
7.634339e+00	8.583410e-08
7.660706e+00	3.642686e-10
7.687071e+00	5.505446e-03
7.713434e+00	1.432616e-09
7.739796e+00	4.976877e-03
7.766157e+00	8.168998e-04
7.792516e+00	5.018466e-02
7.818874e+00	2.729043e-04
7.845230e+00	3.724710e-32
7.871584e+00	2.718545e-33
7.897937e+00	2.551405e-34
7.915837e+00	3.625382e-33

File: li0.5tio2_li0.5tio2_8262.txt
# Q [Å^-1]	I_scaled [a.u.]
0.000000e+00	0.000000e+00
2.657864e-02	0.000000e+00
5.315727e-02	0.000000e+00
7.973589e-02	0.000000e+00
1.063145e-01	0.000000e+00
1.328931e-01	0.000000e+00
1.594717e-01	0.000000e+00
1.860502e-01	0.000000e+00
2.126287e-01	0.000000e+00
2.392071e-01	0.000000e+00
2.657855e-01	0.000000e+00
2.923639e-01	0.000000e+00
3.189422e-01	0.000000e+00
3.455204e-01	0.000000e+00
3.720986e-01	0.000000e+00
3.986767e-01	0.000000e+00
4.252547e-01	0.000000e+00
4.518327e-01	0.000000e+00
4.784105e-01	0.000000e+00
5.049883e-01	0.000000e+00
5.315660e-01	0.000000e+00
5.581435e-01	0.000000e+00
5.847210e-01	0.000000e+00
6.112983e-01	0.000000e+00
6.378756e-01	1.708736e-36
6.644527e-01	3.467255e-32
6.910297e-01	0.000000e+00
7.176065e-01	0.000000e+00
7.441832e-01	0.000000e+00
7.707598e-01	0.000000e+00
7.973362e-01	0.000000e+00
8.239125e-01	0.000000e+00
8.504886e-01	0.000000e+00
8.770645e-01	0.000000e+00
9.036403e-01	0.000000e+00
9.302159e-01	0.000000e+00
9.567913e-01	0.000000e+00
9.833665e-01	0.000000e+00
1.009942e+00	0.000000e+00
1.036516e+00	0.000000e+00
1.063091e+00	0.000000e+00
1.089666e+00	0.000000e+00
1.116240e+00	0.000000e+00
1.142814e+00	0.000000e+00
1.169388e+00	0.000000e+00
1.195961e+00	0.000000e+00
1.222535e+00	3.254769e-43
1.249108e+00	1.592891e-32
1.275681e+00	9.519441e-39
1.302253e+00	7.575424e-05
1.328826e+00	4.747038e-04
1.355398e+00	0.000000e+00
1.381970e+00	0.000000e+00
1.408541e+00	3.100337e-01
1.435113e+00	1.522442e-05
1.461684e+00	0.000000e+00
1.488254e+00	0.000000e+00
1.514825e+00	0.000000e+00
1.541395e+00	0.000000e+00
1.567965e+00	0.000000e+00
1.594535e+00	0.000000e+00
1.621104e+00	0.000000e+00
1.647673e+00	0.000000e+00
1.674242e+00	0.000000e+00
1.700810e+00	0.000000e+00
1.727378e+00	0.000000e+00
1.753946e+00	0.000000e+00
1.780513e+00	0.000000e+00
1.807080e+00	3.826083e-03
1.833647e+00	3.218922e-05
1.860213e+00	0.000000e+00
1.886779e+00	0.000000e+00
1.913344e+00	0.000000e+00
1.939910e+00	0.000000e+00
1.966475e+00	5.501908e-33
1.993039e+00	5.106415e-36
2.019603e+00	0.000000e+00
2.046167e+00	0.000000e+00
2.072730e+00	0.000000e+00
2.099293e+00	0.000000e+00
2.125856e+00	9.243313e-34
2.152418e+00	1.973308e-37
2.178979e+00	0.000000e+00
2.205541e+00	1.671572e-41
2.232101e+00	9.955994e-33
2.258662e+00	7.241081e-41
2.285222e+00	0.000000e+00
2.311781e+00	6.549577e-10
2.338340e+00	3.900971e-01
2.364899e+00	2.837210e-09
2.391457e+00	0.000000e+00
2.418015e+00	0.000000e+00
2.444572e+00	1.203036e-12
2.471129e+00	1.354282e-02
2.497685e+00	2.952449e-02
2.524241e+00	4.489002e-05
2.550797e+00	2.576348e-02
2.577352e+00	5.526115e-05
2.603906e+00	1.791767e-06
2.630460e+00	1.576108e-02
2.657013e+00	4.517453e-09
2.683566e+00	0.000000e+00
2.710118e+00	0.000000e+00
2.736670e+00	0.000000e+00
2.763221e+00	0.000000e+00
2.789772e+00	4.007358e-03
2.816322e+00	1.415355e-03
2.842872e+00	1.250093e-04
2.869421e+00	0.000000e+00
2.895970e+00	6.657537e-07
2.922518e+00	1.350904e-02
2.949065e+00	0.000000e+00
2.975612e+00	0.000000e+00
3.002159e+00	0.000000e+00
3.028704e+00	0.000000e+00
3.055250e+00	0.000000e+00
3.081794e+00	0.000000e+00
3.108338e+00	0.000000e+00
3.134882e+00	0.000000e+00
3.161424e+00	9.250612e-02
3.187967e+00	6.888789e-02
3.214508e+00	4.541655e-09
3.241049e+00	0.000000e+00
3.267590e+00	1.050268e-38
3.294129e+00	3.512567e-32
3.320668e+00	2.274279e-42
3.347207e+00	2.550138e-04
3.373745e+00	3.965243e-05
3.400282e+00	1.073794e-03
3.426818e+00	0.000000e+00
3.453354e+00	0.000000e+00
3.479889e+00	0.000000e+00
3.506424e+00	4.766145e-06
3.532958e+00	1.314185e-02
3.559491e+00	4.759219e-04
3.586023e+00	1.176576e-11
3.612555e+00	7.008079e-03
3.639086e+00	1.217559e-01
3.665617e+00	0.000000e+00
3.692146e+00	0.000000e+00
3.718675e+00	0.000000e+00
3.745203e+00	8.553265e-35
3.771731e+00	2.835807e-35
3.798258e+00	1.938618e-06
3.824784e+00	1.174483e-03
3.851309e+00	6.531892e-04
3.877834e+00	0.000000e+00
3.904358e+00	2.858236e-36
3.930881e+00	2.339449e-07
3.957403e+00	2.276707e-03
3.983925e+00	2.280064e-02
4.010446e+00	4.208012e-12
4.036966e+00	0.000000e+00
4.063485e+00	0.000000e+00
4.090004e+00	8.887433e-11
4.116521e+00	2.301292e-01
4.143038e+00	5.899761e-03
4.169554e+00	1.682251e-11
4.196070e+00	6.862414e-07
4.222584e+00	1.536198e-03
4.249098e+00	3.567018e-02
4.275611e+00	1.359669e-02
4.302123e+00	2.253011e-06
4.328634e+00	1.051572e-02
4.355145e+00	1.327720e-04
4.381654e+00	7.541811e-03
4.408163e+00	0.000000e+00
4.434671e+00	1.217377e-34
4.461178e+00	1.038774e-03
4.487684e+00	1.479958e-01
4.514190e+00	3.009942e-03
4.540694e+00	8.618128e-10
4.567198e+00	2.806909e-08
4.593700e+00	5.162886e-03
4.620202e+00	1.472114e-06
4.646703e+00	8.086153e-04
4.673203e+00	8.664470e-03
4.699702e+00	2.232613e-08
4.726201e+00	2.292801e-10
4.752698e+00	7.225302e-03
4.779194e+00	3.222136e-02
4.805690e+00	6.560254e-13
4.832185e+00	0.000000e+00
4.858678e+00	2.155681e-02
4.885171e+00	2.207161e-06
4.911663e+00	0.000000e+00
4.938154e+00	1.125809e-03
4.964644e+00	4.542585e-06
4.991132e+00	1.143419e-02
5.017620e+00	9.739877e-03
5.044108e+00	3.238457e-03
5.070594e+00	1.093863e-03
5.097079e+00	1.471777e-09
5.123563e+00	2.456763e-03
5.150046e+00	1.467928e-03
5.176528e+00	1.396918e-03
5.203009e+00	3.514490e-10
5.229489e+00	2.430615e-03
5.255968e+00	5.598433e-04
5.282447e+00	1.630401e-05
5.308924e+00	1.686971e-06
5.335400e+00	3.776291e-03
5.361875e+00	3.371462e-11
5.388349e+00	1.172073e-04
5.414822e+00	1.701245e-02
5.441294e+00	1.570540e-03
5.467765e+00	2.627730e-05
5.494235e+00	3.268915e-03
5.520703e+00	4.171539e-05
5.547171e+00	6.633203e-06
5.573638e+00	2.230232e-12
5.600104e+00	6.992550e-02
5.626568e+00	2.462484e-07
5.653032e+00	3.506633e-03
5.679494e+00	1.027264e-02
5.705955e+00	6.140284e-07
5.732415e+00	3.146469e-04
5.758874e+00	0.000000e+00
5.785332e+00	1.204570e-03
5.811789e+00	4.724729e-03
5.838245e+00	1.681619e-02
5.864700e+00	4.905671e-04
5.891153e+00	0.000000e+00
5.917606e+00	1.296115e-10
5.944057e+00	3.445224e-02
5.970507e+00	4.927878e-09
5.996956e+00	1.201973e-02
6.023404e+00	1.837834e-02
6.049850e+00	6.750835e-03
6.076296e+00	6.301719e-09
6.102740e+00	0.000000e+00
6.129183e+00	0.000000e+00
6.155625e+00	0.000000e+00
6.182066e+00	3.679138e-12
6.208506e+00	1.986364e-02
6.234944e+00	1.309576e-09
6.261381e+00	3.550779e-03
6.287817e+00	7.530976e-04
6.314252e+00	7.211805e-05
6.340685e+00	8.398218e-04
6.367118e+00	2.390792e-03
6.393549e+00	6.535898e-03
6.419979e+00	3.072638e-02
6.446408e+00	4.888804e-05
6.472835e+00	3.932538e-04
6.499261e+00	6.101761e-10
6.525686e+00	2.079127e-03
6.552110e+00	1.090406e-02
6.578532e+00	1.397930e-02
6.604953e+00	2.568874e-03
6.631373e+00	2.059233e-05
6.657792e+00	5.659846e-03
6.684209e+00	2.674612e-08
6.710625e+00	2.581659e-04
6.737040e+00	1.045461e-03
6.763454e+00	1.527777e-03
6.789866e+00	2.082377e-03
6.816277e+00	1.288069e-02
6.842686e+00	1.741653e-12
6.869095e+00	2.699047e-05
6.895501e+00	1.196050e-02
6.921907e+00	1.472679e-02
6.948311e+00	3.859184e-10
6.974714e+00	7.536725e-09
7.001116e+00	2.620181e-02
7.027516e+00	3.404474e-04
7.053915e+00	5.011858e-04
7.080313e+00	2.104114e-03
7.106709e+00	7.992943e-05
7.133104e+00	2.863589e-02
7.159497e+00	1.668735e-03
7.185889e+00	9.294541e-35
7.212280e+00	3.121563e-05
7.238669e+00	1.956085e-04
7.265057e+00	1.605710e-03
7.291444e+00	1.360579e-04
7.317829e+00	2.819034e-02
7.344213e+00	8.147904e-03
7.370595e+00	1.380896e-03
7.396976e+00	5.832515e-03
7.423355e+00	6.515499e-03
7.449733e+00	2.055699e-02
7.476110e+00	6.500005e-10
7.502485e+00	2.471766e-05
7.528859e+00	4.572220e-03
7.555231e+00	2.015593e-04
7.581602e+00	1.385710e-03
7.607971e+00	8.862314e-03
7.634339e+00	5.053251e-04
7.660706e+00	3.696284e-04
7.687071e+00	9.625916e-03
7.713434e+00	3.062750e-03
7.739796e+00	2.703059e-05
7.766157e+00	3.928728e-03
7.792516e+00	8.383130e-07
7.818874e+00	2.804570e-05
7.845230e+00	1.077944e-02
7.871584e+00	7.222329e-03
7.897937e+00	2.702326e-03
7.915837e+00	4.105235e-06

File: li0.5tio2_li2fev3o8_180011.txt
# Q [Å^-1]	I_scaled [a.u.]
0.000000e+00	0.000000e+00
2.657864e-02	0.000000e+00
5.315727e-02	0.000000e+00
7.973589e-02	0.000000e+00
1.063145e-01	0.000000e+00
1.328931e-01	0.000000e+00
1.594717e-01	0.000000e+00
1.860502e-01	0.000000e+00
2.126287e-01	0.000000e+00
2.392071e-01	0.000000e+00
2.657855e-01	0.000000e+00
2.923639e-01	0.000000e+00
3.189422e-01	0.000000e+00
3.455204e-01	0.000000e+00
3.720986e-01	0.000000e+00
3.986767e-01	0.000000e+00
4.252547e-01	0.000000e+00
4.518327e-01	0.000000e+00
4.784105e-01	0.000000e+00
5.049883e-01	1.475697e-38
5.315660e-01	2.230324e-31
5.581435e-01	4.116215e-41
5.847210e-01	0.000000e+00
6.112983e-01	0.000000e+00
6.378756e-01	0.000000e+00
6.644527e-01	0.000000e+00
6.910297e-01	0.000000e+00
7.176065e-01	0.000000e+00
7.441832e-01	0.000000e+00
7.707598e-01	0.000000e+00
7.973362e-01	0.000000e+00
8.239125e-01	0.000000e+00
8.504886e-01	0.000000e+00
8.770645e-01	0.000000e+00
9.036403e-01	0.000000e+00
9.302159e-01	0.000000e+00
9.567913e-01	0.000000e+00
9.833665e-01	6.415936e-35
1.009942e+00	1.787084e-02
1.036516e+00	2.841759e-03
1.063091e+00	1.652095e-01
1.089666e+00	3.363657e-12
1.116240e+00	0.000000e+00
1.142814e+00	0.000000e+00
1.169388e+00	0.000000e+00
1.195961e+00	0.000000e+00
1.222535e+00	2.907023e-02
1.249108e+00	7.552822e-08
1.275681e+00	4.808469e-33
1.302253e+00	1.758727e-34
1.328826e+00	0.000000e+00
1.355398e+00	0.000000e+00
1.381970e+00	0.000000e+00
1.408541e+00	0.000000e+00
1.435113e+00	0.000000e+00
1.461684e+00	0.000000e+00
1.488254e+00	0.000000e+00
1.514825e+00	0.000000e+00
1.541395e+00	0.000000e+00
1.567965e+00	1.266172e-36
1.594535e+00	2.329979e-31
1.621104e+00	7.972022e-36
1.647673e+00	1.379296e-32
1.674242e+00	2.890620e-03
1.700810e+00	6.172697e-07
1.727378e+00	8.951381e-01
1.753946e+00	5.901495e-08
1.780513e+00	0.000000e+00
1.807080e+00	0.000000e+00
1.833647e+00	0.000000e+00
1.860213e+00	0.000000e+00
1.886779e+00	0.000000e+00
1.913344e+00	1.111803e-05
1.939910e+00	4.066485e-07
1.966475e+00	1.425501e-11
1.993039e+00	3.691157e-02
2.019603e+00	5.345264e-08
2.046167e+00	4.688218e-01
2.072730e+00	7.450060e-05
2.099293e+00	8.303953e-03
2.125856e+00	5.607851e-02
2.152418e+00	4.218262e-34
2.178979e+00	8.699158e-32
2.205541e+00	0.000000e+00
2.232101e+00	0.000000e+00
2.258662e+00	8.988799e-12
2.285222e+00	2.113943e-01
2.311781e+00	2.569900e-03
2.338340e+00	1.202480e-34
2.364899e+00	1.571127e-33
2.391457e+00	0.000000e+00
2.418015e+00	0.000000e+00
2.444572e+00	9.217961e-03
2.471129e+00	7.755161e-05
2.497685e+00	0.000000e+00
2.524241e+00	1.453594e-10
2.550797e+00	4.152262e-02
2.577352e+00	2.840128e-03
2.603906e+00	2.419559e-04
2.630460e+00	3.161330e-03
2.657013e+00	1.310501e-32
2.683566e+00	2.343290e-04
2.710118e+00	4.324054e-04
2.736670e+00	2.578444e-03
2.763221e+00	0.000000e+00
2.789772e+00	2.217840e-03
2.816322e+00	2.058415e-06
2.842872e+00	0.000000e+00
2.869421e+00	0.000000e+00
2.895970e+00	3.336607e-11
2.922518e+00	4.571187e-03
2.949065e+00	7.647373e-12
2.975612e+00	4.597588e-35
3.002159e+00	4.915283e-06
3.028704e+00	3.909532e-01
3.055250e+00	2.652912e-02
3.081794e+00	4.653681e-04
3.108338e+00	4.849108e-06
3.134882e+00	1.988153e-06
3.161424e+00	4.970821e-05
3.187967e+00	4.049370e-04
3.214508e+00	6.464934e-02
3.241049e+00	1.170914e-05
3.267590e+00	7.340526e-05
3.294129e+00	4.767436e-01
3.320668e+00	8.798627e-11
3.347207e+00	2.232428e-06
3.373745e+00	5.089380e-02
3.400282e+00	5.569360e-05
3.426818e+00	3.496168e-04
3.453354e+00	3.762005e-02
3.479889e+00	5.168848e-08
3.506424e+00	1.204334e-03
3.532958e+00	1.852287e-02
3.559491e+00	6.503543e-09
3.586023e+00	3.015028e-31
3.612555e+00	1.206286e-03
3.639086e+00	1.994059e-04
3.665617e+00	3.545730e-02
3.692146e+00	2.398641e-03
3.718675e+00	7.889782e-09
3.745203e+00	4.546842e-07
3.771731e+00	2.122195e-03
3.798258e+00	4.410320e-33
3.824784e+00	7.009367e-10
3.851309e+00	1.059378e-02
3.877834e+00	1.844189e-01
3.904358e+00	1.298255e-01
3.930881e+00	7.306308e-05
3.957403e+00	8.077979e-33
3.983925e+00	4.606693e-02
4.010446e+00	4.927110e-03
4.036966e+00	2.754025e-03
4.063485e+00	3.777774e-03
4.090004e+00	3.412120e-04
4.116521e+00	4.337039e-03
4.143038e+00	5.048098e-03
4.169554e+00	1.348325e-04
4.196070e+00	9.573191e-02
4.222584e+00	4.168189e-02
4.249098e+00	9.827403e-03
4.275611e+00	5.800317e-02
4.302123e+00	1.169389e-06
4.328634e+00	4.114501e-05
4.355145e+00	2.182792e-02
4.381654e+00	2.333475e-08
4.408163e+00	5.012251e-03
4.434671e+00	5.798189e-06
4.461178e+00	1.586042e-02
4.487684e+00	1.110391e-02
4.514190e+00	3.850168e-04
4.540694e+00	7.589965e-07
4.567198e+00	1.897665e-04
4.593700e+00	1.730681e-02
4.620202e+00	3.930971e-07
4.646703e+00	5.641185e-04
4.673203e+00	1.204308e-07
4.699702e+00	9.460717e-04
4.726201e+00	2.019721e-07
4.752698e+00	1.409574e-31
4.779194e+00	1.578692e-33
4.805690e+00	6.580188e-11
4.832185e+00	9.015040e-03
4.858678e+00	2.594788e-04
4.885171e+00	5.065717e-02
4.911663e+00	1.229338e-02
4.938154e+00	1.460399e-02
4.964644e+00	3.552582e-02
4.991132e+00	2.342158e-09
5.017620e+00	8.115662e-03
5.044108e+00	2.449764e-03
5.070594e+00	3.345536e-03
5.097079e+00	1.133075e-02
5.123563e+00	2.809804e-03
5.150046e+00	1.044083e-02
5.176528e+00	4.130845e-02
5.203009e+00	9.421631e-04
5.229489e+00	1.424861e-03
5.255968e+00	6.741357e-03
5.282447e+00	3.043851e-06
5.308924e+00	6.520888e-03
5.335400e+00	8.242473e-08
5.361875e+00	3.307393e-02
5.388349e+00	3.284809e-02
5.414822e+00	1.752260e-06
5.441294e+00	5.276090e-03
5.467765e+00	8.725471e-05
5.494235e+00	9.771582e-04
5.520703e+00	5.050444e-04
5.547171e+00	1.492414e-02
5.573638e+00	2.971559e-04
5.600104e+00	1.547362e-05
5.626568e+00	8.221192e-04
5.653032e+00	1.076720e-13
5.679494e+00	5.817307e-04
5.705955e+00	1.403577e-03
5.732415e+00	3.147303e-04
5.758874e+00	3.399950e-03
5.785332e+00	1.691589e-03
5.811789e+00	2.799219e-05
5.838245e+00	1.413744e-02
5.864700e+00	2.116041e-08
5.891153e+00	8.086304e-03
5.917606e+00	2.465160e-02
5.944057e+00	2.923330e-04
5.970507e+00	3.094023e-04
5.996956e+00	1.973844e-04
6.023404e+00	3.764790e-03
6.049850e+00	2.486671e-02
6.076296e+00	8.273272e-02
6.102740e+00	4.451835e-03
6.129183e+00	2.475640e-02
6.155625e+00	2.839645e-04
6.182066e+00	7.246050e-03
6.208506e+00	9.060727e-04
6.234944e+00	2.935069e-02
6.261381e+00	6.198752e-03
6.287817e+00	1.879558e-03
6.314252e+00	1.400695e-05
6.340685e+00	8.634709e-03
6.367118e+00	3.552455e-03
6.393549e+00	1.924438e-08
6.419979e+00	1.757532e-04
6.446408e+00	1.301299e-02
6.472835e+00	1.101803e-09
6.499261e+00	1.298579e-04
6.525686e+00	2.176788e-02
6.552110e+00	4.310770e-07
6.578532e+00	1.600501e-02
6.604953e+00	1.526567e-05
6.631373e+00	5.485536e-05
6.657792e+00	3.269207e-03
6.684209e+00	1.591457e-02
6.710625e+00	2.447981e-03
6.737040e+00	7.367268e-04
6.763454e+00	3.792096e-02
6.789866e+00	3.949892e-03
6.816277e+00	1.244784e-02
6.842686e+00	3.373401e-03
6.869095e+00	3.656349e-04
6.895501e+00	3.244751e-02
6.921907e+00	4.587725e-03
6.948311e+00	2.605244e-03
6.974714e+00	1.855151e-03
7.001116e+00	9.602937e-05
7.027516e+00	2.213960e-02
7.053915e+00	1.889304e-02
7.080313e+00	2.023394e-02
7.106709e+00	3.501348e-03
7.133104e+00	1.555543e-07
7.159497e+00	9.951098e-04
7.185889e+00	8.511354e-05
7.212280e+00	2.720570e-04
7.238669e+00	1.136962e-02
7.265057e+00	4.678314e-02
7.291444e+00	5.830018e-04
7.317829e+00	2.947475e-03
7.344213e+00	5.417488e-05
7.370595e+00	5.688008e-04
7.396976e+00	2.017624e-02
7.423355e+00	3.387235e-03
7.449733e+00	1.613895e-02
7.476110e+00	2.158585e-03
7.502485e+00	8.547364e-04
7.528859e+00	1.539350e-02
7.555231e+00	1.054120e-02
7.581602e+00	1.566433e-03
7.607971e+00	2.186660e-03
7.634339e+00	2.721976e-02
7.660706e+00	3.962783e-04
7.687071e+00	1.034360e-03
7.713434e+00	1.570089e-04
7.739796e+00	1.524270e-04
7.766157e+00	1.118561e-03
7.792516e+00	1.869351e-02
7.818874e+00	6.245106e-03
7.845230e+00	1.010548e-02
7.871584e+00	9.348906e-03
7.897937e+00	5.855953e-03
7.915837e+00	1.261819e-06