Folder: pyScattData/cif_pxrd_calculator/txt/itwotheta

Note: README.md
# pyScattData
Processing, analysis, and plotting of scattering data.

If you encounter any bugs or have suggestions for new code or functionalities,
please post an issue here on GitHub. If you refer to a specific script, please
include that in the title of the issue.

Go explore the Bragg peaks and whatever might be hidden underneath them!

## Setup and installation
The following guidelines assume that the user runs a conda distribution, i.e.,
Anaconda or Miniconda. If these guidelines are followed, all dependencies for
the `pyScattData` code will be installed.

### Create a new `pyscattdata` conda environment
- It is highly recommended to run the code in a conda environment dedicated to
  the pyScattData library. If the user does not already have that, such a conda
  environment, called `pyscattdata` and using the latest Python 3 version, can
  be created from:
  ```shell
  conda create -n pyscattdata python=3
  ```

### Activate `pyscattdata` conda environment
- When the user has a `pyscattdata` conda environment, the user should activate
  the pyscattdata conda environment:
  ```shell
  conda activate pyscattdata
  ```

### Install dependencies
- Navigate to the main `pyScattData` directory. Using conda, dependencies
  present in the `run.txt` file in the `requirements` directory will be
  installed from the `conda-forge` channel, when running (NB: this might take
  some time - consider to go for a coffee...):
  ```shell
  conda install -c conda-forge --file requirements/run.txt
  ```
- Using pip, additional dependencies present in the `pip_requirements.txt` file
  in the `requirements` directory will be installed, when running:
  ```shell
  pip install -r requirements/pip_requirements.txt
  ```
- If running on a Unix-based OS (MacOS or Linux), additional dependencies
  present in the `diffpy_extras.txt` file in the `requirements` directory will
  be installed, when running:
  ```shell
  pip install -r requirements/diffpy_extras.txt
  ```
  Unfortunately, these diffpy packages are not available for Windows users.

Now, all `pyScattData` dependencies are installed for the `pyscattdata` conda
environment. You are now ready to run the code present in the `pyScattData`
repository.

File: li0.5tio2_Imma_36449.txt
# 2theta [deg]	I_scaled [a.u.]	Wavelength = 0.20721 Å
0.000000e+00	0.000000e+00
5.022110e-02	0.000000e+00
1.004422e-01	0.000000e+00
1.506633e-01	0.000000e+00
2.008844e-01	0.000000e+00
2.511055e-01	0.000000e+00
3.013266e-01	0.000000e+00
3.515477e-01	0.000000e+00
4.017688e-01	0.000000e+00
4.519899e-01	0.000000e+00
5.022110e-01	0.000000e+00
5.524321e-01	0.000000e+00
6.026532e-01	0.000000e+00
6.528743e-01	0.000000e+00
7.030954e-01	0.000000e+00
7.533165e-01	0.000000e+00
8.035376e-01	0.000000e+00
8.537587e-01	0.000000e+00
9.039798e-01	0.000000e+00
9.542009e-01	0.000000e+00
1.004422e+00	0.000000e+00
1.054643e+00	0.000000e+00
1.104864e+00	0.000000e+00
1.155085e+00	0.000000e+00
1.205306e+00	0.000000e+00
1.255527e+00	1.796685e-42
1.305749e+00	4.217160e-32
1.355970e+00	1.208725e-38
1.406191e+00	0.000000e+00
1.456412e+00	0.000000e+00
1.506633e+00	0.000000e+00
1.556854e+00	0.000000e+00
1.607075e+00	0.000000e+00
1.657296e+00	0.000000e+00
1.707517e+00	0.000000e+00
1.757738e+00	0.000000e+00
1.807960e+00	0.000000e+00
1.858181e+00	0.000000e+00
1.908402e+00	0.000000e+00
1.958623e+00	0.000000e+00
2.008844e+00	0.000000e+00
2.059065e+00	0.000000e+00
2.109286e+00	0.000000e+00
2.159507e+00	0.000000e+00
2.209728e+00	0.000000e+00
2.259949e+00	0.000000e+00
2.310171e+00	0.000000e+00
2.360392e+00	0.000000e+00
2.410613e+00	0.000000e+00
2.460834e+00	0.000000e+00
2.511055e+00	0.000000e+00
2.561276e+00	0.000000e+00
2.611497e+00	6.030460e-03
2.661718e+00	1.420249e-07
2.711939e+00	0.000000e+00
2.762160e+00	0.000000e+00
2.812382e+00	0.000000e+00
2.862603e+00	9.793129e-41
2.912824e+00	1.341669e-32
2.963045e+00	2.244547e-41
3.013266e+00	0.000000e+00
3.063487e+00	1.882576e-42
3.113708e+00	1.016401e-32
3.163929e+00	6.838271e-04
3.214150e+00	3.884322e-02
3.264371e+00	0.000000e+00
3.314593e+00	0.000000e+00
3.364814e+00	1.058883e-01
3.415035e+00	2.049125e-04
3.465256e+00	0.000000e+00
3.515477e+00	0.000000e+00
3.565698e+00	0.000000e+00
3.615919e+00	0.000000e+00
3.666140e+00	0.000000e+00
3.716361e+00	0.000000e+00
3.766582e+00	0.000000e+00
3.816804e+00	0.000000e+00
3.867025e+00	4.846103e-41
3.917246e+00	1.074994e-31
3.967467e+00	9.156751e-35
4.017688e+00	1.658558e-42
4.067909e+00	8.117019e-32
4.118130e+00	4.850894e-38
4.168351e+00	0.000000e+00
4.218572e+00	1.759850e-72
4.268793e+00	1.156330e-64
4.319015e+00	9.277853e-74
4.369236e+00	0.000000e+00
4.419457e+00	1.191068e-38
4.469678e+00	4.140682e-32
4.519899e+00	1.757788e-42
4.570120e+00	0.000000e+00
4.620341e+00	0.000000e+00
4.670562e+00	0.000000e+00
4.720783e+00	0.000000e+00
4.771004e+00	0.000000e+00
4.821226e+00	0.000000e+00
4.871447e+00	1.929098e-03
4.921668e+00	1.333573e-03
4.971889e+00	3.984472e-06
5.022110e+00	7.596743e-02
5.072331e+00	6.222371e-11
5.122552e+00	0.000000e+00
5.172773e+00	0.000000e+00
5.222994e+00	5.160441e-03
5.273215e+00	3.567380e-03
5.323437e+00	0.000000e+00
5.373658e+00	0.000000e+00
5.423879e+00	0.000000e+00
5.474100e+00	0.000000e+00
5.524321e+00	0.000000e+00
5.574542e+00	0.000000e+00
5.624763e+00	0.000000e+00
5.674984e+00	0.000000e+00
5.725205e+00	0.000000e+00
5.775426e+00	8.453070e-10
5.825648e+00	5.034704e-01
5.875869e+00	3.661784e-09
5.926090e+00	5.925236e-40
5.976311e+00	9.541850e-33
6.026532e+00	8.455558e-34
6.076753e+00	2.339617e-35
6.126974e+00	3.056879e-34
6.177195e+00	0.000000e+00
6.227416e+00	1.754402e-01
6.277637e+00	1.981642e-06
6.327858e+00	2.641211e-40
6.378080e+00	9.586228e-04
6.428301e+00	4.707383e-08
6.478522e+00	0.000000e+00
6.528743e+00	7.036973e-35
6.578964e+00	1.737970e-32
6.629185e+00	1.177662e-34
6.679406e+00	0.000000e+00
6.729627e+00	1.584023e-01
6.779848e+00	6.995551e-03
6.830069e+00	1.627754e-43
6.880291e+00	1.832396e-33
6.930512e+00	2.518889e-40
6.980733e+00	3.377351e-04
7.030954e+00	4.412753e-03
7.081175e+00	5.314064e-35
7.131396e+00	2.031818e-09
7.181617e+00	6.402849e-02
7.231838e+00	5.590773e-05
7.282059e+00	2.878683e-02
7.332280e+00	2.096971e-37
7.382502e+00	1.373333e-31
7.432723e+00	1.199139e-41
7.482944e+00	0.000000e+00
7.533165e+00	0.000000e+00
7.583386e+00	0.000000e+00
7.633607e+00	0.000000e+00
7.683828e+00	1.030899e-02
7.734049e+00	1.164428e-07
7.784270e+00	2.670556e-38
7.834491e+00	1.465094e-01
7.884713e+00	3.502679e-03
7.934934e+00	1.020401e-01
7.985155e+00	8.187218e-11
8.035376e+00	0.000000e+00
8.085597e+00	0.000000e+00
8.135818e+00	1.591233e-02
8.186039e+00	1.338720e-04
8.236260e+00	0.000000e+00
8.286481e+00	0.000000e+00
8.336702e+00	0.000000e+00
8.386924e+00	6.793336e-32
8.437145e+00	8.946278e-33
8.487366e+00	2.100476e-10
8.537587e+00	2.608525e-01
8.587808e+00	3.955775e-09
8.638029e+00	2.774537e-32
8.688250e+00	1.313682e-34
8.738471e+00	3.227751e-33
8.788692e+00	6.434727e-12
8.838913e+00	3.474104e-02
8.889135e+00	2.533517e-09
8.939356e+00	4.403530e-03
8.989577e+00	4.633504e-05
9.039798e+00	7.494505e-33
9.090019e+00	3.024744e-35
9.140240e+00	1.376953e-33
9.190461e+00	1.019385e-31
9.240682e+00	2.408720e-39
9.290903e+00	6.542514e-04
9.341124e+00	4.099778e-03
9.391346e+00	2.562311e-32
9.441567e+00	1.113776e-02
9.491788e+00	4.367197e-04
9.542009e+00	3.011132e-04
9.592230e+00	2.832984e-02
9.642451e+00	4.457039e-02
9.692672e+00	1.699811e-04
9.742893e+00	1.739882e-08
9.793114e+00	4.376373e-03
9.843335e+00	1.137038e-08
9.893557e+00	1.339397e-32
9.943778e+00	9.741548e-41
9.993999e+00	2.945406e-05
1.004422e+01	3.612883e-02
1.009444e+01	5.616216e-09
1.014466e+01	1.782253e-02
1.019488e+01	4.295326e-07
1.024510e+01	1.640646e-37
1.029533e+01	1.286725e-31
1.034555e+01	0.000000e+00
1.039577e+01	0.000000e+00
1.044599e+01	4.724706e-33
1.049621e+01	1.183237e-02
1.054643e+01	6.409886e-08
1.059665e+01	1.320568e-34
1.064687e+01	6.766884e-05
1.069709e+01	4.677903e-05
1.074732e+01	6.785887e-33
1.079754e+01	1.963177e-05
1.084776e+01	2.325125e-03
1.089798e+01	2.041636e-08
1.094820e+01	7.829973e-03
1.099842e+01	4.047702e-37
1.104864e+01	4.518163e-33
1.109886e+01	1.012539e-02
1.114908e+01	2.979875e-04
1.119931e+01	0.000000e+00
1.124953e+01	0.000000e+00
1.129975e+01	1.029767e-06
1.134997e+01	1.617645e-02
1.140019e+01	1.397391e-07
1.145041e+01	5.670483e-02
1.150063e+01	1.626002e-02
1.155085e+01	0.000000e+00
1.160107e+01	5.398583e-05
1.165130e+01	4.388266e-03
1.170152e+01	5.384641e-04
1.175174e+01	2.139019e-06
1.180196e+01	9.594911e-33
1.185218e+01	7.386257e-36
1.190240e+01	0.000000e+00
1.195262e+01	2.197678e-04
1.200284e+01	1.791835e-03
1.205306e+01	1.507488e-05
1.210328e+01	5.150205e-10
1.215351e+01	3.386135e-02
1.220373e+01	2.788641e-03
1.225395e+01	1.183907e-03
1.230417e+01	3.117517e-33
1.235439e+01	4.120968e-33
1.240461e+01	1.656755e-33
1.245483e+01	1.536382e-07
1.250505e+01	1.355332e-02
1.255527e+01	2.359814e-06
1.260550e+01	1.761106e-02
1.265572e+01	8.239608e-09
1.270594e+01	1.106157e-02
1.275616e+01	7.961455e-05
1.280638e+01	3.893703e-02
1.285660e+01	3.803395e-02
1.290682e+01	1.272201e-02
1.295704e+01	0.000000e+00
1.300726e+01	0.000000e+00
1.305749e+01	1.033747e-06
1.310771e+01	2.315049e-03
1.315793e+01	7.376842e-04
1.320815e+01	1.036233e-05
1.325837e+01	5.335555e-03
1.330859e+01	1.651071e-32
1.335881e+01	2.072821e-33
1.340903e+01	1.476144e-03
1.345925e+01	5.956935e-06
1.350948e+01	2.943546e-04
1.355970e+01	1.429788e-01
1.360992e+01	1.933107e-10
1.366014e+01	3.737888e-07
1.371036e+01	8.367282e-04
1.376058e+01	5.056682e-02
1.381080e+01	1.346983e-02
1.386102e+01	2.608960e-03
1.391124e+01	1.719749e-10
1.396147e+01	0.000000e+00
1.401169e+01	2.908593e-05
1.406191e+01	2.450665e-04
1.411213e+01	1.038531e-04
1.416235e+01	1.345765e-02
1.421257e+01	3.058620e-07
1.426279e+01	2.698141e-02
1.431301e+01	1.577987e-37
1.436323e+01	1.311679e-04
1.441346e+01	3.839970e-03
1.446368e+01	8.583410e-08
1.451390e+01	3.642686e-10
1.456412e+01	5.505446e-03
1.461434e+01	1.432616e-09
1.466456e+01	4.976877e-03
1.471478e+01	8.168998e-04
1.476500e+01	5.018466e-02
1.481522e+01	2.729043e-04
1.486545e+01	3.724710e-32
1.491567e+01	2.718545e-33
1.496589e+01	2.551405e-34
1.500000e+01	3.625382e-33

File: li0.5tio2_li0.5tio2_8262.txt
# 2theta [deg]	I_scaled [a.u.]	Wavelength = 0.20721 Å
0.000000e+00	0.000000e+00
5.022110e-02	0.000000e+00
1.004422e-01	0.000000e+00
1.506633e-01	0.000000e+00
2.008844e-01	0.000000e+00
2.511055e-01	0.000000e+00
3.013266e-01	0.000000e+00
3.515477e-01	0.000000e+00
4.017688e-01	0.000000e+00
4.519899e-01	0.000000e+00
5.022110e-01	0.000000e+00
5.524321e-01	0.000000e+00
6.026532e-01	0.000000e+00
6.528743e-01	0.000000e+00
7.030954e-01	0.000000e+00
7.533165e-01	0.000000e+00
8.035376e-01	0.000000e+00
8.537587e-01	0.000000e+00
9.039798e-01	0.000000e+00
9.542009e-01	0.000000e+00
1.004422e+00	0.000000e+00
1.054643e+00	0.000000e+00
1.104864e+00	0.000000e+00
1.155085e+00	0.000000e+00
1.205306e+00	1.708736e-36
1.255527e+00	3.467255e-32
1.305749e+00	0.000000e+00
1.355970e+00	0.000000e+00
1.406191e+00	0.000000e+00
1.456412e+00	0.000000e+00
1.506633e+00	0.000000e+00
1.556854e+00	0.000000e+00
1.607075e+00	0.000000e+00
1.657296e+00	0.000000e+00
1.707517e+00	0.000000e+00
1.757738e+00	0.000000e+00
1.807960e+00	0.000000e+00
1.858181e+00	0.000000e+00
1.908402e+00	0.000000e+00
1.958623e+00	0.000000e+00
2.008844e+00	0.000000e+00
2.059065e+00	0.000000e+00
2.109286e+00	0.000000e+00
2.159507e+00	0.000000e+00
2.209728e+00	0.000000e+00
2.259949e+00	0.000000e+00
2.310171e+00	3.254769e-43
2.360392e+00	1.592891e-32
2.410613e+00	9.519441e-39
2.460834e+00	7.575424e-05
2.511055e+00	4.747038e-04
2.561276e+00	0.000000e+00
2.611497e+00	0.000000e+00
2.661718e+00	3.100337e-01
2.711939e+00	1.522442e-05
2.762160e+00	0.000000e+00
2.812382e+00	0.000000e+00
2.862603e+00	0.000000e+00
2.912824e+00	0.000000e+00
2.963045e+00	0.000000e+00
3.013266e+00	0.000000e+00
3.063487e+00	0.000000e+00
3.113708e+00	0.000000e+00
3.163929e+00	0.000000e+00
3.214150e+00	0.000000e+00
3.264371e+00	0.000000e+00
3.314593e+00	0.000000e+00
3.364814e+00	0.000000e+00
3.415035e+00	3.826083e-03
3.465256e+00	3.218922e-05
3.515477e+00	0.000000e+00
3.565698e+00	0.000000e+00
3.615919e+00	0.000000e+00
3.666140e+00	0.000000e+00
3.716361e+00	5.501908e-33
3.766582e+00	5.106415e-36
3.816804e+00	0.000000e+00
3.867025e+00	0.000000e+00
3.917246e+00	0.000000e+00
3.967467e+00	0.000000e+00
4.017688e+00	9.243313e-34
4.067909e+00	1.973308e-37
4.118130e+00	0.000000e+00
4.168351e+00	1.671572e-41
4.218572e+00	9.955994e-33
4.268793e+00	7.241081e-41
4.319015e+00	0.000000e+00
4.369236e+00	6.549577e-10
4.419457e+00	3.900971e-01
4.469678e+00	2.837210e-09
4.519899e+00	0.000000e+00
4.570120e+00	0.000000e+00
4.620341e+00	1.203036e-12
4.670562e+00	1.354282e-02
4.720783e+00	2.952449e-02
4.771004e+00	4.489002e-05
4.821226e+00	2.576348e-02
4.871447e+00	5.526115e-05
4.921668e+00	1.791767e-06
4.971889e+00	1.576108e-02
5.022110e+00	4.517453e-09
5.072331e+00	0.000000e+00
5.122552e+00	0.000000e+00
5.172773e+00	0.000000e+00
5.222994e+00	0.000000e+00
5.273215e+00	4.007358e-03
5.323437e+00	1.415355e-03
5.373658e+00	1.250093e-04
5.423879e+00	0.000000e+00
5.474100e+00	6.657537e-07
5.524321e+00	1.350904e-02
5.574542e+00	0.000000e+00
5.624763e+00	0.000000e+00
5.674984e+00	0.000000e+00
5.725205e+00	0.000000e+00
5.775426e+00	0.000000e+00
5.825648e+00	0.000000e+00
5.875869e+00	0.000000e+00
5.926090e+00	0.000000e+00
5.976311e+00	9.250612e-02
6.026532e+00	6.888789e-02
6.076753e+00	4.541655e-09
6.126974e+00	0.000000e+00
6.177195e+00	1.050268e-38
6.227416e+00	3.512567e-32
6.277637e+00	2.274279e-42
6.327858e+00	2.550138e-04
6.378080e+00	3.965243e-05
6.428301e+00	1.073794e-03
6.478522e+00	0.000000e+00
6.528743e+00	0.000000e+00
6.578964e+00	0.000000e+00
6.629185e+00	4.766145e-06
6.679406e+00	1.314185e-02
6.729627e+00	4.759219e-04
6.779848e+00	1.176576e-11
6.830069e+00	7.008079e-03
6.880291e+00	1.217559e-01
6.930512e+00	0.000000e+00
6.980733e+00	0.000000e+00
7.030954e+00	0.000000e+00
7.081175e+00	8.553265e-35
7.131396e+00	2.835807e-35
7.181617e+00	1.938618e-06
7.231838e+00	1.174483e-03
7.282059e+00	6.531892e-04
7.332280e+00	0.000000e+00
7.382502e+00	2.858236e-36
7.432723e+00	2.339449e-07
7.482944e+00	2.276707e-03
7.533165e+00	2.280064e-02
7.583386e+00	4.208012e-12
7.633607e+00	0.000000e+00
7.683828e+00	0.000000e+00
7.734049e+00	8.887433e-11
7.784270e+00	2.301292e-01
7.834491e+00	5.899761e-03
7.884713e+00	1.682251e-11
7.934934e+00	6.862414e-07
7.985155e+00	1.536198e-03
8.035376e+00	3.567018e-02
8.085597e+00	1.359669e-02
8.135818e+00	2.253011e-06
8.186039e+00	1.051572e-02
8.236260e+00	1.327720e-04
8.286481e+00	7.541811e-03
8.336702e+00	0.000000e+00
8.386924e+00	1.217377e-34
8.437145e+00	1.038774e-03
8.487366e+00	1.479958e-01
8.537587e+00	3.009942e-03
8.587808e+00	8.618128e-10
8.638029e+00	2.806909e-08
8.688250e+00	5.162886e-03
8.738471e+00	1.472114e-06
8.788692e+00	8.086153e-04
8.838913e+00	8.664470e-03
8.889135e+00	2.232613e-08
8.939356e+00	2.292801e-10
8.989577e+00	7.225302e-03
9.039798e+00	3.222136e-02
9.090019e+00	6.560254e-13
9.140240e+00	0.000000e+00
9.190461e+00	2.155681e-02
9.240682e+00	2.207161e-06
9.290903e+00	0.000000e+00
9.341124e+00	1.125809e-03
9.391346e+00	4.542585e-06
9.441567e+00	1.143419e-02
9.491788e+00	9.739877e-03
9.542009e+00	3.238457e-03
9.592230e+00	1.093863e-03
9.642451e+00	1.471777e-09
9.692672e+00	2.456763e-03
9.742893e+00	1.467928e-03
9.793114e+00	1.396918e-03
9.843335e+00	3.514490e-10
9.893557e+00	2.430615e-03
9.943778e+00	5.598433e-04
9.993999e+00	1.630401e-05
1.004422e+01	1.686971e-06
1.009444e+01	3.776291e-03
1.014466e+01	3.371462e-11
1.019488e+01	1.172073e-04
1.024510e+01	1.701245e-02
1.029533e+01	1.570540e-03
1.034555e+01	2.627730e-05
1.039577e+01	3.268915e-03
1.044599e+01	4.171539e-05
1.049621e+01	6.633203e-06
1.054643e+01	2.230232e-12
1.059665e+01	6.992550e-02
1.064687e+01	2.462484e-07
1.069709e+01	3.506633e-03
1.074732e+01	1.027264e-02
1.079754e+01	6.140284e-07
1.084776e+01	3.146469e-04
1.089798e+01	0.000000e+00
1.094820e+01	1.204570e-03
1.099842e+01	4.724729e-03
1.104864e+01	1.681619e-02
1.109886e+01	4.905671e-04
1.114908e+01	0.000000e+00
1.119931e+01	1.296115e-10
1.124953e+01	3.445224e-02
1.129975e+01	4.927878e-09
1.134997e+01	1.201973e-02
1.140019e+01	1.837834e-02
1.145041e+01	6.750835e-03
1.150063e+01	6.301719e-09
1.155085e+01	0.000000e+00
1.160107e+01	0.000000e+00
1.165130e+01	0.000000e+00
1.170152e+01	3.679138e-12
1.175174e+01	1.986364e-02
1.180196e+01	1.309576e-09
1.185218e+01	3.550779e-03
1.190240e+01	7.530976e-04
1.195262e+01	7.211805e-05
1.200284e+01	8.398218e-04
1.205306e+01	2.390792e-03
1.210328e+01	6.535898e-03
1.215351e+01	3.072638e-02
1.220373e+01	4.888804e-05
1.225395e+01	3.932538e-04
1.230417e+01	6.101761e-10
1.235439e+01	2.079127e-03
1.240461e+01	1.090406e-02
1.245483e+01	1.397930e-02
1.250505e+01	2.568874e-03
1.255527e+01	2.059233e-05
1.260550e+01	5.659846e-03
1.265572e+01	2.674612e-08
1.270594e+01	2.581659e-04
1.275616e+01	1.045461e-03
1.280638e+01	1.527777e-03
1.285660e+01	2.082377e-03
1.290682e+01	1.288069e-02
1.295704e+01	1.741653e-12
1.300726e+01	2.699047e-05
1.305749e+01	1.196050e-02
1.310771e+01	1.472679e-02
1.315793e+01	3.859184e-10
1.320815e+01	7.536725e-09
1.325837e+01	2.620181e-02
1.330859e+01	3.404474e-04
1.335881e+01	5.011858e-04
1.340903e+01	2.104114e-03
1.345925e+01	7.992943e-05
1.350948e+01	2.863589e-02
1.355970e+01	1.668735e-03
1.360992e+01	9.294541e-35
1.366014e+01	3.121563e-05
1.371036e+01	1.956085e-04
1.376058e+01	1.605710e-03
1.381080e+01	1.360579e-04
1.386102e+01	2.819034e-02
1.391124e+01	8.147904e-03
1.396147e+01	1.380896e-03
1.401169e+01	5.832515e-03
1.406191e+01	6.515499e-03
1.411213e+01	2.055699e-02
1.416235e+01	6.500005e-10
1.421257e+01	2.471766e-05
1.426279e+01	4.572220e-03
1.431301e+01	2.015593e-04
1.436323e+01	1.385710e-03
1.441346e+01	8.862314e-03
1.446368e+01	5.053251e-04
1.451390e+01	3.696284e-04
1.456412e+01	9.625916e-03
1.461434e+01	3.062750e-03
1.466456e+01	2.703059e-05
1.471478e+01	3.928728e-03
1.476500e+01	8.383130e-07
1.481522e+01	2.804570e-05
1.486545e+01	1.077944e-02
1.491567e+01	7.222329e-03
1.496589e+01	2.702326e-03
1.500000e+01	4.105235e-06

File: li0.5tio2_li2fev3o8_180011.txt
# 2theta [deg]	I_scaled [a.u.]	Wavelength = 0.20721 Å
0.000000e+00	0.000000e+00
5.022110e-02	0.000000e+00
1.004422e-01	0.000000e+00
1.506633e-01	0.000000e+00
2.008844e-01	0.000000e+00
2.511055e-01	0.000000e+00
3.013266e-01	0.000000e+00
3.515477e-01	0.000000e+00
4.017688e-01	0.000000e+00
4.519899e-01	0.000000e+00
5.022110e-01	0.000000e+00
5.524321e-01	0.000000e+00
6.026532e-01	0.000000e+00
6.528743e-01	0.000000e+00
7.030954e-01	0.000000e+00
7.533165e-01	0.000000e+00
8.035376e-01	0.000000e+00
8.537587e-01	0.000000e+00
9.039798e-01	0.000000e+00
9.542009e-01	1.475697e-38
1.004422e+00	2.230324e-31
1.054643e+00	4.116215e-41
1.104864e+00	0.000000e+00
1.155085e+00	0.000000e+00
1.205306e+00	0.000000e+00
1.255527e+00	0.000000e+00
1.305749e+00	0.000000e+00
1.355970e+00	0.000000e+00
1.406191e+00	0.000000e+00
1.456412e+00	0.000000e+00
1.506633e+00	0.000000e+00
1.556854e+00	0.000000e+00
1.607075e+00	0.000000e+00
1.657296e+00	0.000000e+00
1.707517e+00	0.000000e+00
1.757738e+00	0.000000e+00
1.807960e+00	0.000000e+00
1.858181e+00	6.415936e-35
1.908402e+00	1.787084e-02
1.958623e+00	2.841759e-03
2.008844e+00	1.652095e-01
2.059065e+00	3.363657e-12
2.109286e+00	0.000000e+00
2.159507e+00	0.000000e+00
2.209728e+00	0.000000e+00
2.259949e+00	0.000000e+00
2.310171e+00	2.907023e-02
2.360392e+00	7.552822e-08
2.410613e+00	4.808469e-33
2.460834e+00	1.758727e-34
2.511055e+00	0.000000e+00
2.561276e+00	0.000000e+00
2.611497e+00	0.000000e+00
2.661718e+00	0.000000e+00
2.711939e+00	0.000000e+00
2.762160e+00	0.000000e+00
2.812382e+00	0.000000e+00
2.862603e+00	0.000000e+00
2.912824e+00	0.000000e+00
2.963045e+00	1.266172e-36
3.013266e+00	2.329979e-31
3.063487e+00	7.972022e-36
3.113708e+00	1.379296e-32
3.163929e+00	2.890620e-03
3.214150e+00	6.172697e-07
3.264371e+00	8.951381e-01
3.314593e+00	5.901495e-08
3.364814e+00	0.000000e+00
3.415035e+00	0.000000e+00
3.465256e+00	0.000000e+00
3.515477e+00	0.000000e+00
3.565698e+00	0.000000e+00
3.615919e+00	1.111803e-05
3.666140e+00	4.066485e-07
3.716361e+00	1.425501e-11
3.766582e+00	3.691157e-02
3.816804e+00	5.345264e-08
3.867025e+00	4.688218e-01
3.917246e+00	7.450060e-05
3.967467e+00	8.303953e-03
4.017688e+00	5.607851e-02
4.067909e+00	4.218262e-34
4.118130e+00	8.699158e-32
4.168351e+00	0.000000e+00
4.218572e+00	0.000000e+00
4.268793e+00	8.988799e-12
4.319015e+00	2.113943e-01
4.369236e+00	2.569900e-03
4.419457e+00	1.202480e-34
4.469678e+00	1.571127e-33
4.519899e+00	0.000000e+00
4.570120e+00	0.000000e+00
4.620341e+00	9.217961e-03
4.670562e+00	7.755161e-05
4.720783e+00	0.000000e+00
4.771004e+00	1.453594e-10
4.821226e+00	4.152262e-02
4.871447e+00	2.840128e-03
4.921668e+00	2.419559e-04
4.971889e+00	3.161330e-03
5.022110e+00	1.310501e-32
5.072331e+00	2.343290e-04
5.122552e+00	4.324054e-04
5.172773e+00	2.578444e-03
5.222994e+00	0.000000e+00
5.273215e+00	2.217840e-03
5.323437e+00	2.058415e-06
5.373658e+00	0.000000e+00
5.423879e+00	0.000000e+00
5.474100e+00	3.336607e-11
5.524321e+00	4.571187e-03
5.574542e+00	7.647373e-12
5.624763e+00	4.597588e-35
5.674984e+00	4.915283e-06
5.725205e+00	3.909532e-01
5.775426e+00	2.652912e-02
5.825648e+00	4.653681e-04
5.875869e+00	4.849108e-06
5.926090e+00	1.988153e-06
5.976311e+00	4.970821e-05
6.026532e+00	4.049370e-04
6.076753e+00	6.464934e-02
6.126974e+00	1.170914e-05
6.177195e+00	7.340526e-05
6.227416e+00	4.767436e-01
6.277637e+00	8.798627e-11
6.327858e+00	2.232428e-06
6.378080e+00	5.089380e-02
6.428301e+00	5.569360e-05
6.478522e+00	3.496168e-04
6.528743e+00	3.762005e-02
6.578964e+00	5.168848e-08
6.629185e+00	1.204334e-03
6.679406e+00	1.852287e-02
6.729627e+00	6.503543e-09
6.779848e+00	3.015028e-31
6.830069e+00	1.206286e-03
6.880291e+00	1.994059e-04
6.930512e+00	3.545730e-02
6.980733e+00	2.398641e-03
7.030954e+00	7.889782e-09
7.081175e+00	4.546842e-07
7.131396e+00	2.122195e-03
7.181617e+00	4.410320e-33
7.231838e+00	7.009367e-10
7.282059e+00	1.059378e-02
7.332280e+00	1.844189e-01
7.382502e+00	1.298255e-01
7.432723e+00	7.306308e-05
7.482944e+00	8.077979e-33
7.533165e+00	4.606693e-02
7.583386e+00	4.927110e-03
7.633607e+00	2.754025e-03
7.683828e+00	3.777774e-03
7.734049e+00	3.412120e-04
7.784270e+00	4.337039e-03
7.834491e+00	5.048098e-03
7.884713e+00	1.348325e-04
7.934934e+00	9.573191e-02
7.985155e+00	4.168189e-02
8.035376e+00	9.827403e-03
8.085597e+00	5.800317e-02
8.135818e+00	1.169389e-06
8.186039e+00	4.114501e-05
8.236260e+00	2.182792e-02
8.286481e+00	2.333475e-08
8.336702e+00	5.012251e-03
8.386924e+00	5.798189e-06
8.437145e+00	1.586042e-02
8.487366e+00	1.110391e-02
8.537587e+00	3.850168e-04
8.587808e+00	7.589965e-07
8.638029e+00	1.897665e-04
8.688250e+00	1.730681e-02
8.738471e+00	3.930971e-07
8.788692e+00	5.641185e-04
8.838913e+00	1.204308e-07
8.889135e+00	9.460717e-04
8.939356e+00	2.019721e-07
8.989577e+00	1.409574e-31
9.039798e+00	1.578692e-33
9.090019e+00	6.580188e-11
9.140240e+00	9.015040e-03
9.190461e+00	2.594788e-04
9.240682e+00	5.065717e-02
9.290903e+00	1.229338e-02
9.341124e+00	1.460399e-02
9.391346e+00	3.552582e-02
9.441567e+00	2.342158e-09
9.491788e+00	8.115662e-03
9.542009e+00	2.449764e-03
9.592230e+00	3.345536e-03
9.642451e+00	1.133075e-02
9.692672e+00	2.809804e-03
9.742893e+00	1.044083e-02
9.793114e+00	4.130845e-02
9.843335e+00	9.421631e-04
9.893557e+00	1.424861e-03
9.943778e+00	6.741357e-03
9.993999e+00	3.043851e-06
1.004422e+01	6.520888e-03
1.009444e+01	8.242473e-08
1.014466e+01	3.307393e-02
1.019488e+01	3.284809e-02
1.024510e+01	1.752260e-06
1.029533e+01	5.276090e-03
1.034555e+01	8.725471e-05
1.039577e+01	9.771582e-04
1.044599e+01	5.050444e-04
1.049621e+01	1.492414e-02
1.054643e+01	2.971559e-04
1.059665e+01	1.547362e-05
1.064687e+01	8.221192e-04
1.069709e+01	1.076720e-13
1.074732e+01	5.817307e-04
1.079754e+01	1.403577e-03
1.084776e+01	3.147303e-04
1.089798e+01	3.399950e-03
1.094820e+01	1.691589e-03
1.099842e+01	2.799219e-05
1.104864e+01	1.413744e-02
1.109886e+01	2.116041e-08
1.114908e+01	8.086304e-03
1.119931e+01	2.465160e-02
1.124953e+01	2.923330e-04
1.129975e+01	3.094023e-04
1.134997e+01	1.973844e-04
1.140019e+01	3.764790e-03
1.145041e+01	2.486671e-02
1.150063e+01	8.273272e-02
1.155085e+01	4.451835e-03
1.160107e+01	2.475640e-02
1.165130e+01	2.839645e-04
1.170152e+01	7.246050e-03
1.175174e+01	9.060727e-04
1.180196e+01	2.935069e-02
1.185218e+01	6.198752e-03
1.190240e+01	1.879558e-03
1.195262e+01	1.400695e-05
1.200284e+01	8.634709e-03
1.205306e+01	3.552455e-03
1.210328e+01	1.924438e-08
1.215351e+01	1.757532e-04
1.220373e+01	1.301299e-02
1.225395e+01	1.101803e-09
1.230417e+01	1.298579e-04
1.235439e+01	2.176788e-02
1.240461e+01	4.310770e-07
1.245483e+01	1.600501e-02
1.250505e+01	1.526567e-05
1.255527e+01	5.485536e-05
1.260550e+01	3.269207e-03
1.265572e+01	1.591457e-02
1.270594e+01	2.447981e-03
1.275616e+01	7.367268e-04
1.280638e+01	3.792096e-02
1.285660e+01	3.949892e-03
1.290682e+01	1.244784e-02
1.295704e+01	3.373401e-03
1.300726e+01	3.656349e-04
1.305749e+01	3.244751e-02
1.310771e+01	4.587725e-03
1.315793e+01	2.605244e-03
1.320815e+01	1.855151e-03
1.325837e+01	9.602937e-05
1.330859e+01	2.213960e-02
1.335881e+01	1.889304e-02
1.340903e+01	2.023394e-02
1.345925e+01	3.501348e-03
1.350948e+01	1.555543e-07
1.355970e+01	9.951098e-04
1.360992e+01	8.511354e-05
1.366014e+01	2.720570e-04
1.371036e+01	1.136962e-02
1.376058e+01	4.678314e-02
1.381080e+01	5.830018e-04
1.386102e+01	2.947475e-03
1.391124e+01	5.417488e-05
1.396147e+01	5.688008e-04
1.401169e+01	2.017624e-02
1.406191e+01	3.387235e-03
1.411213e+01	1.613895e-02
1.416235e+01	2.158585e-03
1.421257e+01	8.547364e-04
1.426279e+01	1.539350e-02
1.431301e+01	1.054120e-02
1.436323e+01	1.566433e-03
1.441346e+01	2.186660e-03
1.446368e+01	2.721976e-02
1.451390e+01	3.962783e-04
1.456412e+01	1.034360e-03
1.461434e+01	1.570089e-04
1.466456e+01	1.524270e-04
1.471478e+01	1.118561e-03
1.476500e+01	1.869351e-02
1.481522e+01	6.245106e-03
1.486545e+01	1.010548e-02
1.491567e+01	9.348906e-03
1.496589e+01	5.855953e-03
1.500000e+01	1.261819e-06