Folder: pyScattData/asc_to-csv/example/asc

Note: asc_to-csv/README.md
# asc_to_csv
Code for converting .asc files to .csv files and plotting.

Powder x-ray diffraction data from the Rigaku Miniflex 600 table top
diffractometer at the Department of Physics, Chemistry, and Pharmacy,
University of Southern Denmark, may be exported as .asc files. This code
converts the .asc files to .csv (comma-separated values) files and save plots
as .png and .pdf files.

File: 210721_LFP_first.asc
*TYPE		=  Raw
*CLASS		=  ASCII CLASS
*SAMPLE		=  2210721_LFP_first
*COMMENT	=
*FNAME		=  210721_LFP_first_Theta_2-Theta.asc
*DATE		=  21-Jul-21 11:54

*GROUP_COUNT	=  1
*GONIO		=  MiniFlex 300/600 +, 150
*ATTACHMENT	=  ASC-6
*ASC		=  0, 0, 0.000000, 0.000000
*FILTER		=  K-beta(x1)
*C_MONOCHRO	=  None, 0.000000
*SLIT_NAME	=  0, IHS
*SLIT_NAME	=  1, DS +
*SLIT_NAME	=  2, SS
*SLIT_NAME	=  3, RS
*COUNTER	=  D/teX Ultra, 0
*POS_FORMAT	=  0
*SCAN_AXIS	=  2theta/theta
*MEAS_MODE	=  Continuous Scanning
*TARGET		=  29
*XRAY_CHAR	=  K-ALPHA
*WAVE_LENGTH1	=  1.54059
*WAVE_LENGTH2	=  1.54441
*THICKNESS	=  0, 0.000000
*MU		=  0, 0.000000
*SCAN_MODE	=  2theta/theta
*SPEED_DIM	=  sec./step
*XUNIT		=  deg.
*YUNIT		=  counts
*SCALE_MODE	=  1
*REP_COUNT	=  0
*SE_COUNT	=  0
*STD_MATERIAL	=  Unknown, Unknown, 0.000000, 0.000000, 0.000000, 0.000000, 0.000000, 0.000000
*LATT_CONS	=  0, Unknown, Unknown, 0.000000, 0.000000, 0.000000, 0.000000, 0.000000, 0.000000
*SEC_COUNT	=  1
*TSPEC_SIZE	=  0
*EXTRA_SIZE	=  0
*MEMO		=

*BEGIN
*GROUP		=  0
*START		=  5
*STOP		=  90
*STEP		=  0.02
*OFFSET		=  0.000000
*SPEED		=  0.12
*SLIT_SPEC	=  0, 10.0mm, 10, 0.000000
*SLIT_SPEC	=  1, 0.625deg, 0.625, 0.000000
*SLIT_SPEC	=  2, 13.0mm, 13, 0.000000
*SLIT_SPEC	=  3, 13.0mm, 13, 0.000000
*KV		=  20
*MA		=  2
*LOW		=  0.000000
*HIGH		=  0.000000
*CTEMPER	=  0, 0.000000
*CTEMPER	=  1, 0.000000
*CTEMPER	=  2, 0.000000
*PAREX		=  0, 0.000000
*PAREX		=  1, 0.000000
*PAREX		=  2, 0.000000
*PAREX		=  3, 0.000000
*PAREX		=  4, 0.000000
*PAREX		=  5, 0.000000
*PAREX		=  6, 0.000000
*PAREX		=  7, 0.000000
*PAREX		=  8, 0.000000
*PAREX		=  9, 0.000000
*PAREX		=  10, 0.000000
*PAREX		=  11, 0.000000
*PAREX		=  12, 0.000000
*PAREX		=  13, 0.000000
*PAREX		=  14, 0.000000
*PAREX		=  15, 0.000000
*FULL_SCALE	=  10910
*INDEX		=  0, 0, 0
*COUNT		=  4251
153, 141, 154, 155
146, 156, 150, 137
131, 147, 151, 149
143, 139, 126, 126
147, 154, 152, 130
133, 147, 128, 114
144, 149, 132, 135
133, 136, 132, 131
121, 134, 124, 129
114, 125, 126, 118
125, 130, 126, 135
115, 127, 130, 121
119, 122, 124, 131
129, 122, 115, 112
120, 125, 122, 117
113, 101, 121, 131
116, 109, 115, 130
132, 139, 121, 110
122, 123, 131, 134
130, 137, 139, 136
142, 131, 116, 120
139, 125, 112, 111
137, 144, 130, 128
146, 138, 132, 132
141, 133, 132, 138
137, 141, 145, 138
138, 148, 136, 125
121, 123, 127, 130
134, 134, 129, 135
131, 136, 133, 122
129, 137, 135, 140
124, 114, 126, 124
137, 137, 128, 138
141, 142, 144, 133
138, 136, 147, 142
120, 114, 121, 122
133, 126, 129, 120
136, 138, 139, 156
527, 521, 447, 383
132, 138, 135, 141
141, 131, 123, 125
125, 124, 135, 129
129, 119, 130, 130
114, 122, 136, 129
121, 121, 118, 126
128, 125, 117, 114
134, 123, 122, 118
119, 135, 126, 134
146, 139, 149, 157
456, 546, 676, 799
176, 180, 172, 154
148, 140, 123, 127
142, 136, 124, 126
123, 142, 153, 142
133, 129, 128, 133
245, 261, 301, 359
167, 155, 159, 166
120, 133, 143, 136
109, 123, 116, 112
125, 145, 159, 160
136, 145, 157, 146
123, 135, 139, 126
122, 121, 129, 130
163, 166, 157, 164
516, 638, 763, 893
254, 241, 220, 205
134, 132, 133, 130
137, 124, 120, 121
115, 115, 123, 129
128, 120, 110, 113
111, 120, 120, 114
114, 114, 116, 124
124, 123, 128, 119
113, 116, 117, 116
114, 110, 124, 126
131, 132, 136, 139
144, 159, 162, 154
570, 651, 755, 899
232, 207, 197, 190
120, 125, 126, 124
120, 109, 105, 106
117, 117, 118, 109
122, 109, 103, 111
116, 118, 122, 113
128, 119, 115, 118
443, 492, 507, 456
136, 127, 130, 125
118, 113, 117, 118
118, 123, 108, 97
107, 99, 105, 105
114, 113, 100, 108
118, 107, 112, 121
130, 135, 134, 132
121, 127, 119, 119
134, 140, 131, 141
252, 299, 342, 369
679, 542, 477, 428
160, 154, 151, 152
187, 188, 193, 215
285, 233, 210, 196
122, 122, 111, 120
119, 111, 120, 119
145, 119, 116, 134
286, 260, 247, 225
110, 117, 116, 111
97, 113, 108, 104
97, 107, 110, 112
151, 178, 188, 205
196, 225, 251, 271
280, 256, 252, 232
103, 111, 116, 113
83, 99, 105, 107
109, 112, 103, 104
92, 85, 87, 103
81, 94, 106, 108
98, 100, 93, 90
149, 149, 161, 199
166, 142, 133, 136
99, 102, 92, 86
92, 98, 89, 81
95, 95, 97, 95
91, 94, 93, 90
100, 98, 100, 111
140, 147, 147, 147
105, 108, 109, 115
128, 136, 136, 131
97, 89, 95, 104
112, 96, 81, 80
108, 94, 95, 100
121, 126, 130, 129
99, 91, 96, 98
102, 103, 103, 109
84, 92, 96, 95
101, 99, 84, 85
86, 98, 92, 91
114, 116, 124, 121
97, 92, 94, 103
100, 102, 99, 108
158, 159, 175, 188
140, 130, 118, 123
114, 117, 110, 103
154, 170, 188, 179
199, 177, 167, 180
136, 135, 116, 109
106, 111, 109, 94
98, 97, 95, 96
96, 91, 92, 92
104, 118, 119, 128
178, 190, 207, 218
333, 346, 330, 285
131, 142, 146, 135
107, 110, 114, 109
110, 96, 108, 101
98, 106, 97, 101
103, 104, 102, 102
117, 111, 108, 107
177, 180, 191, 217
160, 144, 157, 174
218, 212, 187, 192
106, 109, 101, 112
118, 126, 117, 122
175, 187, 204, 213
172, 161, 156, 160
102, 102, 105, 94
109, 113, 102, 92
109, 108, 109, 106
125, 134, 133, 134
140, 141, 126, 135
93, 91, 97, 95
91, 95, 100, 92
96, 94, 95, 81
102, 97, 107, 98
88, 86, 91, 89
82, 74, 86, 96
95, 87, 90, 106
108, 94, 98, 89
111, 121, 127, 119
196, 225, 246, 238
230, 244, 231, 235
165, 153, 170, 153
106, 110, 96, 87
92, 93, 88, 85
96, 95, 95, 89
88, 84, 101, 88
103, 105, 98, 117
114, 95, 117, 113
99, 103, 97, 99
98, 98, 100, 89
79, 86, 85, 92
100, 105, 101, 99
90, 99, 100, 100
113, 109, 92, 104
129, 131, 134, 136
88, 96, 88, 88
102, 92, 92, 94
119, 109, 127, 122
122, 114, 123, 118
99, 88, 97, 99
96, 97, 108, 110
89, 97, 91, 84
95, 106, 102, 91
119, 103, 98, 97
114, 108, 93, 99
99, 104, 104, 116
154, 144, 138, 144
105, 105, 119, 127
94, 89, 92, 87
109, 102, 105, 106
104, 109, 104, 92
122, 112, 98, 117
131, 137, 141, 147
125, 126, 128, 129
88, 88, 94, 98
93, 94, 90, 87
104, 112, 106, 107
106, 108, 100, 95
102, 102, 100, 98
119, 116, 124, 126
100, 110, 99, 87
88, 100, 105, 104
102, 98, 93, 88
99, 94, 93, 102
99, 86, 77, 86
81, 94, 99, 99
83, 82, 83, 84
86, 78, 78, 86
84, 77, 86, 90
100, 104, 104, 105
120, 117, 112, 115
87, 93, 98, 99
89, 98, 95, 86
92, 94, 88, 91
83, 85, 88, 84
80, 80, 76, 75
77, 74, 77, 81
89, 96, 91, 92
87, 88, 77, 74
86, 85, 91, 92
83, 83, 89, 92
88, 89, 87, 87
86, 85, 97, 107
100, 98, 103, 99
89, 87, 87, 92
90, 94, 91, 89
86, 83, 89, 94
96, 102, 107, 100
84, 94, 111, 109
106, 115, 118, 120
106, 101, 103, 101
90, 77, 74, 83
100, 104, 101, 105
105, 107, 107, 109
95, 90, 92, 95
85, 88, 89, 87
85, 84, 72, 75
99, 94, 88, 85
95, 104, 99, 96
103, 96, 103, 99
113, 113, 113, 109
101, 102, 109, 115
96, 87, 100, 100
113, 112, 104, 99
93, 104, 102, 105
98, 95, 91, 87
86, 84, 87, 99
93, 89, 89, 98
74, 74, 74
*END

*EOF