Folder: pyScattData/asc_to_csv/example/asc

Note: README.md
# pyScattData
Processing, analysis, and plotting of scattering data.

If you encounter any bugs or have suggestions for new code or functionalities,
please post an issue here on GitHub. If you refer to a specific script, please
include that in the title of the issue.

Go explore the Bragg peaks and whatever might be hidden underneath them!

## Setup and installation
The following guidelines assume that the user runs a conda distribution, i.e.,
Anaconda or Miniconda. If these guidelines are followed, all dependencies for
the `pyScattData` code will be installed.

### Create a new `pyscattdata` conda environment
- It is highly recommended to run the code in a conda environment dedicated to
  the pyScattData library. If the user does not already have that, such a conda
  environment, called `pyscattdata` and using the latest Python 3 version, can
  be created from:
  ```shell
  conda create -n pyscattdata python=3
  ```

### Activate `pyscattdata` conda environment
- When the user has a `pyscattdata` conda environment, the user should activate
  the pyscattdata conda environment:
  ```shell
  conda activate pyscattdata
  ```

### Install dependencies
- Navigate to the main `pyScattData` directory. Using conda, dependencies
  present in the `run.txt` file in the `requirements` directory will be
  installed from the `conda-forge` channel, when running (NB: this might take
  some time - consider to go for a coffee...):
  ```shell
  conda install -c conda-forge --file requirements/run.txt
  ```
- Using pip, additional dependencies present in the `pip_requirements.txt` file
  in the `requirements` directory will be installed, when running:
  ```shell
  pip install -r requirements/pip_requirements.txt
  ```
- If running on a Unix-based OS (MacOS or Linux), additional dependencies
  present in the `diffpy_extras.txt` file in the `requirements` directory will
  be installed, when running:
  ```shell
  pip install -r requirements/diffpy_extras.txt
  ```
  Unfortunately, these diffpy packages are not available for Windows users.

Now, all `pyScattData` dependencies are installed for the `pyscattdata` conda
environment. You are now ready to run the code present in the `pyScattData`
repository.

File: 050121_LMO-p.asc
*TYPE		=  Raw
*CLASS		=  ASCII CLASS
*SAMPLE		=  050121_LMO-p.ras
*COMMENT	=
*FNAME		=  050121_LMO-p_Theta_2-Theta.asc
*DATE		=  05-Jan-21 12:55

*GROUP_COUNT	=  1
*GONIO		=  MiniFlex 300/600 +, 150
*ATTACHMENT	=  ASC-6
*ASC		=  0, 0, 0.000000, 0.000000
*FILTER		=  K-beta(x1)
*C_MONOCHRO	=  None, 0.000000
*SLIT_NAME	=  0, IHS
*SLIT_NAME	=  1, DS
*SLIT_NAME	=  2, SS
*SLIT_NAME	=  3, RS
*COUNTER	=  D/teX Ultra, 0
*POS_FORMAT	=  0
*SCAN_AXIS	=  2theta/theta
*MEAS_MODE	=  Continuous Scanning
*TARGET		=  29
*XRAY_CHAR	=  K-ALPHA
*WAVE_LENGTH1	=  1.54059
*WAVE_LENGTH2	=  1.54441
*THICKNESS	=  0, 0.000000
*MU		=  0, 0.000000
*SCAN_MODE	=  2theta/theta
*SPEED_DIM	=  sec./step
*XUNIT		=  deg.
*YUNIT		=  counts
*SCALE_MODE	=  1
*REP_COUNT	=  0
*SE_COUNT	=  0
*STD_MATERIAL	=  Unknown, Unknown, 0.000000, 0.000000, 0.000000, 0.000000, 0.000000, 0.000000
*LATT_CONS	=  0, Unknown, Unknown, 0.000000, 0.000000, 0.000000, 0.000000, 0.000000, 0.000000
*SEC_COUNT	=  1
*TSPEC_SIZE	=  0
*EXTRA_SIZE	=  0
*MEMO		=

*BEGIN
*GROUP		=  0
*START		=  3
*STOP		=  90
*STEP		=  0.02
*OFFSET		=  0.000000
*SPEED		=  0.24
*SLIT_SPEC	=  0, 10.0mm, 10, 0.000000
*SLIT_SPEC	=  1, 0.625deg, 0.625, 0.000000
*SLIT_SPEC	=  2, 13.0mm, 13, 0.000000
*SLIT_SPEC	=  3, 13.0mm, 13, 0.000000
*KV		=  40
*MA		=  15
*LOW		=  0.000000
*HIGH		=  0.000000
*CTEMPER	=  0, 0.000000
*CTEMPER	=  1, 0.000000
*CTEMPER	=  2, 0.000000
*PAREX		=  0, 0.000000
*PAREX		=  1, 0.000000
*PAREX		=  2, 0.000000
*PAREX		=  3, 0.000000
*PAREX		=  4, 0.000000
*PAREX		=  5, 0.000000
*PAREX		=  6, 0.000000
*PAREX		=  7, 0.000000
*PAREX		=  8, 0.000000
*PAREX		=  9, 0.000000
*PAREX		=  10, 0.000000
*PAREX		=  11, 0.000000
*PAREX		=  12, 0.000000
*PAREX		=  13, 0.000000
*PAREX		=  14, 0.000000
*PAREX		=  15, 0.000000
*FULL_SCALE	=  47785
*INDEX		=  0, 0, 0
*COUNT		=  4351
822, 836, 818, 805
807, 805, 768, 780
790, 745, 751, 763
750, 764, 766, 774
807, 806, 800, 813
752, 781, 809, 811
819, 807, 792, 793
843, 865, 900, 847
872, 887, 909, 898
897, 904, 919, 922
933, 959, 944, 960
988, 1002, 977, 957
955, 967, 986, 968
1039, 1040, 1006, 998
1022, 1056, 1044, 1080
1057, 1090, 1108, 1091
1071, 1070, 1073, 1123
1126, 1113, 1118, 1092
1174, 1178, 1169, 1174
1114, 1158, 1208, 1169
1211, 1218, 1204, 1192
1218, 1195, 1212, 1241
1209, 1233, 1232, 1243
1265, 1296, 1260, 1299
1280, 1268, 1305, 1317
1278, 1314, 1296, 1334
1346, 1280, 1303, 1362
1385, 1316, 1358, 1378
1370, 1358, 1368, 1397
1363, 1346, 1368, 1375
1366, 1376, 1392, 1393
1421, 1409, 1435, 1414
1420, 1404, 1423, 1406
1397, 1390, 1398, 1378
1420, 1394, 1383, 1355
1459, 1419, 1396, 1379
1389, 1379, 1354, 1406
1393, 1421, 1405, 1399
1411, 1401, 1403, 1461
1351, 1435, 1444, 1424
1366, 1364, 1325, 1317
1343, 1355, 1356, 1314
1339, 1333, 1328, 1363
1374, 1343, 1341, 1341
1319, 1343, 1324, 1302
1328, 1329, 1375, 1357
1400, 1376, 1332, 1368
1479, 1447, 1424, 1413
1691, 1707, 1739, 1762
9557, 9036, 8001, 6697
1736, 1722, 1646, 1607
1476, 1470, 1502, 1504
1419, 1435, 1426, 1382
1363, 1436, 1412, 1423
1345, 1379, 1371, 1434
1362, 1374, 1378, 1326
1380, 1425, 1356, 1354
1330, 1336, 1284, 1319
1301, 1365, 1342, 1338
1299, 1270, 1300, 1299
1239, 1273, 1261, 1220
1213, 1244, 1233, 1216
1232, 1262, 1252, 1224
1329, 1313, 1291, 1286
1175, 1186, 1167, 1139
1166, 1152, 1114, 1069
1067, 1073, 1089, 1089
1049, 1028, 1075, 1086
1023, 998, 1006, 1016
1029, 1021, 1015, 985
982, 988, 1007, 1030
971, 952, 939, 963
941, 935, 948, 948
911, 922, 920, 899
892, 895, 874, 859
868, 877, 860, 862
883, 882, 867, 865
873, 885, 876, 855
814, 841, 879, 872
837, 827, 802, 792
820, 831, 819, 814
825, 809, 802, 804
777, 815, 786, 771
767, 783, 792, 792
779, 779, 767, 779
758, 762, 788, 801
761, 749, 778, 778
762, 774, 776, 754
766, 782, 784, 797
732, 734, 746, 742
728, 747, 737, 715
719, 709, 712, 730
735, 694, 700, 716
755, 757, 786, 810
952, 891, 837, 792
749, 729, 703, 706
717, 725, 716, 764
689, 690, 729, 721
695, 731, 723, 721
687, 683, 691, 702
701, 671, 711, 711
734, 732, 735, 740
805, 782, 786, 799
1148, 1222, 1322, 1450
2831, 2548, 2273, 1998
922, 891, 888, 850
736, 739, 737, 697
717, 705, 728, 740
721, 707, 691, 705
1292, 1252, 1207, 1143
798, 815, 820, 817
668, 664, 677, 669
666, 680, 670, 653
674, 649, 681, 661
632, 638, 642, 641
664, 677, 687, 672
628, 636, 642, 666
642, 619, 643, 651
645, 630, 644, 624
664, 656, 620, 641
655, 622, 643, 659
636, 626, 633, 628
643, 654, 647, 657
647, 662, 663, 639
651, 684, 668, 636
678, 677, 651, 643
697, 730, 707, 698
922, 920, 965, 1050
3253, 3316, 3290, 3174
1515, 1417, 1322, 1299
786, 776, 752, 762
674, 652, 691, 673
693, 694, 686, 663
639, 626, 654, 656
648, 644, 652, 633
634, 640, 603, 608
626, 608, 606, 602
626, 625, 632, 611
623, 647, 646, 630
619, 613, 578, 596
626, 644, 668, 665
1078, 1115, 1127, 1109
778, 725, 716, 718
647, 640, 645, 624
614, 594, 604, 621
614, 611, 647, 662
598, 620, 625, 610
559, 573, 583, 609
587, 591, 607, 627
633, 624, 623, 634
607, 612, 617, 602
571, 577, 565, 574
556, 602, 609, 602
600, 594, 585, 596
595, 614, 621, 620
610, 595, 560, 549
580, 589, 592, 574
598, 616, 605, 593
598, 602, 609, 593
580, 569, 596, 595
588, 581, 577, 591
573, 605, 616, 605
628, 613, 610, 590
744, 717, 735, 729
598, 592, 580, 599
593, 600, 580, 570
605, 588, 578, 569
605, 597, 594, 597
600, 593, 561, 554
600, 579, 569, 586
623, 622, 635, 621
651, 686, 670, 677
905, 977, 1041, 1114
1143, 1067, 1025, 1020
737, 710, 692, 696
647, 620, 619, 607
603, 582, 568, 578
570, 578, 605, 580
564, 602, 623, 602
599, 588, 581, 570
629, 629, 604, 608
583, 602, 604, 590
592, 590, 592, 572
615, 591, 563, 564
624, 619, 608, 618
580, 571, 570, 563
584, 567, 602, 603
600, 613, 611, 608
610, 593, 602, 637
679, 687, 689, 718
1307, 1423, 1557, 1690
1438, 1385, 1300, 1229
830, 823, 783, 778
612, 616, 637, 650
622, 592, 601, 629
603, 599, 605, 616
649, 636, 649, 639
585, 624, 624, 617
627, 607, 586, 604
637, 631, 620, 600
706, 707, 741, 777
998, 1008, 1008, 962
741, 730, 689, 685
624, 626, 620, 630
561, 584, 607, 574
580, 600, 583, 571
577, 573, 588, 600
578, 567, 578, 562
574, 566, 592, 584
588, 565, 571, 574
563, 546, 568, 574
590, 584, 558, 540
567, 555, 552, 538
583, 568, 573, 545
580, 576, 546, 537
572, 576, 571, 556
563, 568, 559, 581
542, 552, 548, 541
591, 574, 570, 594
589, 576, 563, 580
562, 556, 590, 596
573, 592, 589, 584
601, 602, 587, 575
555, 570, 568, 562
570, 558, 580, 561
544, 548, 554, 574
571, 589, 610, 612
737, 739, 766, 751
692, 646, 607, 632
602, 618, 651, 641
692, 707, 707, 722
717, 705, 713, 720
608, 611, 612, 605
593, 595, 600, 585
587, 570, 571, 580
580, 580, 582, 556
553, 558, 572, 595
551, 559, 574, 568
557, 555, 568, 592
566, 584, 547, 549
585, 571, 565, 553
571, 580, 608, 590
567, 554, 579, 589
847, 855, 849, 821
750, 710, 705, 707
624, 623, 626, 624
578, 580, 571, 579
562, 568, 588, 572
564, 576, 589, 563
574, 569, 574, 551
579, 565, 554, 575
578, 605, 605, 614
634, 636, 643, 652
693, 707, 700, 695
637, 659, 646, 608
602, 598, 578, 584
524, 562, 568, 567
573, 552, 554, 554
557, 551, 552, 547
547, 529, 545, 572
551, 538, 535, 564
588, 582, 559, 527
556, 547, 547, 534
533, 540, 529, 540
561, 567, 606, 558
535, 560, 571, 589
558, 537, 539, 556
571, 529, 555, 553
572, 586, 557, 555
579, 572, 548, 551
534, 552, 566, 566
586, 558, 556, 571
575, 594, 594
*END

*EOF

File: 210721_NMC_first.asc
*TYPE		=  Raw
*CLASS		=  ASCII CLASS
*SAMPLE		=  210721_NMC_first
*COMMENT	=
*FNAME		=  210721_NMC_first_Theta_2-Theta.asc
*DATE		=  21-Jul-21 11:11

*GROUP_COUNT	=  1
*GONIO		=  MiniFlex 300/600 +, 150
*ATTACHMENT	=  ASC-6
*ASC		=  0, 0, 0.000000, 0.000000
*FILTER		=  K-beta(x1)
*C_MONOCHRO	=  None, 0.000000
*SLIT_NAME	=  0, IHS
*SLIT_NAME	=  1, DS +
*SLIT_NAME	=  2, SS
*SLIT_NAME	=  3, RS
*COUNTER	=  D/teX Ultra, 0
*POS_FORMAT	=  0
*SCAN_AXIS	=  2theta/theta
*MEAS_MODE	=  Continuous Scanning
*TARGET		=  29
*XRAY_CHAR	=  K-ALPHA
*WAVE_LENGTH1	=  1.54059
*WAVE_LENGTH2	=  1.54441
*THICKNESS	=  0, 0.000000
*MU		=  0, 0.000000
*SCAN_MODE	=  2theta/theta
*SPEED_DIM	=  sec./step
*XUNIT		=  deg.
*YUNIT		=  counts
*SCALE_MODE	=  1
*REP_COUNT	=  0
*SE_COUNT	=  0
*STD_MATERIAL	=  Unknown, Unknown, 0.000000, 0.000000, 0.000000, 0.000000, 0.000000, 0.000000
*LATT_CONS	=  0, Unknown, Unknown, 0.000000, 0.000000, 0.000000, 0.000000, 0.000000, 0.000000
*SEC_COUNT	=  1
*TSPEC_SIZE	=  0
*EXTRA_SIZE	=  0
*MEMO		=

*BEGIN
*GROUP		=  0
*START		=  5
*STOP		=  90
*STEP		=  0.02
*OFFSET		=  0.000000
*SPEED		=  0.12
*SLIT_SPEC	=  0, 10.0mm, 10, 0.000000
*SLIT_SPEC	=  1, 0.625deg, 0.625, 0.000000
*SLIT_SPEC	=  2, 13.0mm, 13, 0.000000
*SLIT_SPEC	=  3, 13.0mm, 13, 0.000000
*KV		=  40
*MA		=  15
*LOW		=  0.000000
*HIGH		=  0.000000
*CTEMPER	=  0, 0.000000
*CTEMPER	=  1, 0.000000
*CTEMPER	=  2, 0.000000
*PAREX		=  0, 0.000000
*PAREX		=  1, 0.000000
*PAREX		=  2, 0.000000
*PAREX		=  3, 0.000000
*PAREX		=  4, 0.000000
*PAREX		=  5, 0.000000
*PAREX		=  6, 0.000000
*PAREX		=  7, 0.000000
*PAREX		=  8, 0.000000
*PAREX		=  9, 0.000000
*PAREX		=  10, 0.000000
*PAREX		=  11, 0.000000
*PAREX		=  12, 0.000000
*PAREX		=  13, 0.000000
*PAREX		=  14, 0.000000
*PAREX		=  15, 0.000000
*FULL_SCALE	=  37260
*INDEX		=  0, 0, 0
*COUNT		=  4251
1178, 1179, 1197, 1188
1206, 1192, 1214, 1180
1165, 1153, 1180, 1183
1128, 1163, 1163, 1142
1169, 1134, 1145, 1183
1138, 1110, 1089, 1098
1149, 1117, 1126, 1117
1080, 1139, 1141, 1125
1075, 1097, 1091, 1128
1057, 1048, 1104, 1119
1070, 1061, 1041, 1040
1086, 1080, 1114, 1087
1040, 1040, 1059, 1049
1051, 1042, 1018, 1065
1090, 1075, 1019, 984
1061, 1058, 1045, 1048
1104, 1117, 1076, 1094
1096, 1111, 1123, 1114
1160, 1135, 1103, 1134
1154, 1154, 1174, 1156
1166, 1196, 1230, 1225
1236, 1258, 1243, 1255
1203, 1200, 1203, 1210
1285, 1235, 1217, 1244
1272, 1263, 1276, 1272
1285, 1255, 1226, 1293
1304, 1267, 1263, 1309
1308, 1306, 1297, 1251
1284, 1279, 1269, 1297
1306, 1313, 1309, 1297
1341, 1327, 1290, 1310
1316, 1323, 1346, 1314
1306, 1315, 1299, 1288
1276, 1264, 1288, 1322
1294, 1271, 1296, 1302
1306, 1263, 1287, 1323
1295, 1343, 1308, 1293
1317, 1295, 1318, 1312
1280, 1322, 1306, 1264
1283, 1313, 1309, 1299
1327, 1305, 1307, 1273
1273, 1286, 1331, 1314
1266, 1293, 1275, 1277
1277, 1286, 1316, 1289
1317, 1313, 1300, 1295
1297, 1306, 1288, 1295
1253, 1276, 1339, 1314
1290, 1281, 1310, 1252
1267, 1295, 1306, 1290
1269, 1267, 1312, 1301
1282, 1261, 1272, 1319
1265, 1264, 1270, 1293
1298, 1287, 1238, 1243
1295, 1260, 1263, 1311
1226, 1227, 1286, 1310
1277, 1252, 1262, 1288
1254, 1271, 1248, 1266
1283, 1284, 1245, 1261
1238, 1266, 1266, 1253
1312, 1291, 1264, 1237
1297, 1288, 1308, 1297
1253, 1272, 1297, 1279
1270, 1265, 1300, 1304
1245, 1259, 1299, 1323
1234, 1243, 1255, 1239
1270, 1281, 1282, 1282
1261, 1293, 1357, 1336
1290, 1278, 1264, 1275
1268, 1251, 1278, 1289
1294, 1292, 1271, 1259
1287, 1285, 1265, 1281
1298, 1280, 1280, 1298
1248, 1256, 1306, 1279
1295, 1302, 1267, 1242
1309, 1271, 1246, 1247
1271, 1279, 1266, 1253
1262, 1256, 1250, 1258
1297, 1294, 1281, 1288
1287, 1297, 1306, 1296
1263, 1254, 1248, 1288
1285, 1276, 1259, 1263
1290, 1267, 1259, 1287
1272, 1266, 1286, 1261
1288, 1300, 1270, 1273
1329, 1332, 1311, 1292
1298, 1278, 1255, 1250
1281, 1281, 1281, 1248
1293, 1290, 1284, 1273
1253, 1272, 1255, 1287
1260, 1236, 1254, 1282
1299, 1251, 1236, 1331
1295, 1273, 1249, 1240
1299, 1324, 1262, 1270
1276, 1278, 1329, 1342
1271, 1284, 1344, 1280
1296, 1294, 1262, 1281
1313, 1340, 1328, 1332
1441, 1433, 1499, 1520
2439, 2517, 2632, 2702
1911, 1853, 1755, 1628
1329, 1334, 1375, 1343
1360, 1300, 1271, 1294
1269, 1302, 1315, 1297
1255, 1244, 1233, 1225
1278, 1300, 1281, 1245
1263, 1284, 1303, 1280
1307, 1275, 1306, 1321
1312, 1350, 1354, 1322
1293, 1268, 1260, 1305
1272, 1258, 1255, 1276
1293, 1289, 1288, 1308
1291, 1322, 1328, 1281
1315, 1316, 1346, 1348
1325, 1354, 1327, 1307
1320, 1369, 1387, 1403
1493, 1525, 1580, 1556
2263, 2397, 2565, 2696
3598, 3556, 3463, 3327
1749, 1690, 1648, 1623
1321, 1362, 1354, 1319
1324, 1343, 1348, 1326
1337, 1306, 1305, 1299
1321, 1308, 1280, 1294
1386, 1383, 1406, 1446
1333, 1314, 1335, 1342
1301, 1280, 1254, 1297
1298, 1299, 1291, 1252
1304, 1284, 1288, 1309
1337, 1303, 1292, 1263
1269, 1327, 1330, 1332
1262, 1289, 1279, 1280
1279, 1266, 1279, 1300
1285, 1268, 1255, 1298
1258, 1276, 1286, 1292
1273, 1288, 1297, 1285
1263, 1287, 1324, 1281
1319, 1298, 1289, 1252
1266, 1295, 1273, 1258
1268, 1279, 1278, 1265
1283, 1327, 1298, 1235
1286, 1287, 1287, 1262
1277, 1263, 1234, 1274
1265, 1242, 1243, 1242
1297, 1285, 1266, 1275
1280, 1276, 1306, 1313
1232, 1247, 1264, 1307
1345, 1315, 1300, 1310
1295, 1258, 1273, 1283
1293, 1241, 1255, 1291
1260, 1261, 1244, 1246
1271, 1266, 1279, 1272
1247, 1257, 1281, 1292
1272, 1271, 1233, 1254
1227, 1233, 1245, 1251
1243, 1247, 1297, 1270
1274, 1266, 1261, 1286
1268, 1254, 1262, 1254
1268, 1235, 1246, 1244
1262, 1256, 1222, 1284
1254, 1287, 1298, 1240
1275, 1233, 1310, 1276
1233, 1249, 1236, 1258
1305, 1295, 1257, 1243
1290, 1302, 1246, 1214
1333, 1264, 1223, 1205
1255, 1261, 1261, 1272
1261, 1204, 1245, 1256
1215, 1265, 1280, 1234
1301, 1276, 1272, 1271
1284, 1322, 1291, 1255
1258, 1285, 1221, 1226
1302, 1314, 1268, 1293
1282, 1287, 1311, 1330
1313, 1281, 1284, 1325
1343, 1382, 1358, 1322
1532, 1510, 1494, 1518
1975, 1985, 2015, 2021
1925, 1883, 1912, 1824
1466, 1498, 1500, 1441
1292, 1341, 1395, 1368
1321, 1320, 1327, 1299
1266, 1272, 1286, 1297
1262, 1274, 1256, 1269
1279, 1258, 1251, 1281
1291, 1308, 1279, 1287
1265, 1285, 1257, 1236
1327, 1267, 1285, 1215
1272, 1309, 1287, 1269
1267, 1226, 1249, 1257
1298, 1292, 1245, 1236
1254, 1297, 1271, 1270
1225, 1272, 1291, 1299
1279, 1259, 1257, 1285
1264, 1286, 1270, 1252
1250, 1257, 1277, 1296
1241, 1257, 1274, 1274
1253, 1338, 1314, 1320
1276, 1229, 1303, 1263
1202, 1239, 1264, 1243
1216, 1268, 1281, 1267
1253, 1212, 1266, 1258
1270, 1253, 1270, 1246
1270, 1240, 1230, 1268
1234, 1277, 1252, 1300
1216, 1241, 1268, 1300
1314, 1263, 1269, 1279
1256, 1282, 1277, 1291
1330, 1310, 1288, 1284
1259, 1234, 1240, 1271
1252, 1264, 1263, 1253
1292, 1272, 1260, 1276
1292, 1299, 1280, 1257
1321, 1308, 1282, 1282
1359, 1375, 1365, 1347
1463, 1475, 1457, 1456
1475, 1441, 1491, 1485
1314, 1338, 1344, 1363
1324, 1280, 1300, 1287
1263, 1275, 1277, 1271
1279, 1280, 1281, 1264
1307, 1262, 1265, 1292
1281, 1272, 1239, 1277
1298, 1273, 1276, 1257
1330, 1337, 1339, 1326
1342, 1325, 1352, 1335
1329, 1332, 1359, 1362
1407, 1416, 1423, 1427
1447, 1432, 1439, 1461
1332, 1374, 1361, 1350
1271, 1253, 1297, 1313
1259, 1312, 1286, 1264
1251, 1281, 1280, 1285
1305, 1282, 1257, 1284
1289, 1276, 1278, 1282
1269, 1295, 1272, 1231
1308, 1293, 1238, 1229
1287, 1271, 1270, 1291
1251, 1250, 1248, 1222
1255, 1221, 1247, 1301
1308, 1294, 1278, 1269
1255, 1237, 1262, 1247
1254, 1277, 1256, 1258
1235, 1211, 1247, 1325
1268, 1270, 1257, 1243
1288, 1274, 1253, 1242
1289, 1278, 1287, 1306
1258, 1233, 1249, 1284
1247, 1241, 1243, 1286
1323, 1313, 1290, 1274
1269, 1263, 1249, 1270
1262, 1220, 1206, 1207
1210, 1262, 1283, 1256
1276, 1278, 1281, 1271
1268, 1278, 1268, 1270
1274, 1251, 1262, 1257
1248, 1221, 1224, 1257
1261, 1278, 1279, 1236
1276, 1224, 1226, 1219
1243, 1231, 1257, 1277
1286, 1282, 1256, 1259
1283, 1283, 1278, 1260
1268, 1245, 1269, 1254
1254, 1286, 1273, 1268
1275, 1283, 1268, 1240
1274, 1300, 1315, 1277
1235, 1245, 1254, 1236
1296, 1296, 1296
*END

*EOF