Folder: pyScattData/diffraction_plot/example/data

Note: diffraction_plot/README.md
# diffraction_plot
This code is made for plotting diffraction data. All data files in the 'data'
folder will be plotted as the intensity as a function of 2theta in degrees, Q in
inverse Ã…, or Q in inverse nm. The plots will be saved to pdf and png files. The
x-axis format is provided by the user.

File: A1_SDD1205_Li_VO2-B_p2_001.chi
C:\Users\aodrejer\Desktop\Run2\Collected_files_Run2\Pos_A1\A1_SDD1205_Li_VO2-B_p
2-Theta Angle (Degrees)
Intensity
       2000
 0.0461557  0.0000000E+00
 0.0958618  0.0000000E+00
 0.145568  0.0000000E+00
 0.195274  0.0000000E+00
 0.24498  0.0000000E+00
 0.294686  0.0000000E+00
 0.344392  0.0000000E+00
 0.394099  0.0000000E+00
 0.443805  0.0000000E+00
 0.493511  0.0000000E+00
 0.543217  0.0000000E+00
 0.592923  0.0000000E+00
 0.642629  0.0000000E+00
 0.692335  0.0000000E+00
 0.742041  0.0000000E+00
 0.791748  0.0000000E+00
 0.841454  0.0000000E+00
 0.89116  0.0000000E+00
 0.940866  0.0000000E+00
 0.990572  0.0000000E+00
 1.04028  0.0000000E+00
 1.08998  0.0000000E+00
 1.13969  0.0000000E+00
 1.1894  0.0000000E+00
 1.2391  0.0000000E+00
 1.28881  0.0000000E+00
 1.33851  0.0000000E+00
 1.38822  0.0000000E+00
 1.43793  0.0000000E+00
 1.48763  0.0000000E+00
 1.53734  0.0000000E+00
 1.58705  12439.5
 1.63675  12238.8
 1.68646  12126.4
 1.73616  12027.4
 1.78587  11947.6
 1.83558  11972.9
 1.88528  12195.7
 1.93499  13085.1
 1.98469  12655.4
 2.0344  14774.9
 2.08411  14456.9
 2.13381  12673.6
 2.18352  12767.2
 2.23323  12940.2
 2.28293  13131
 2.33264  13474.9
 2.38234  14266.7
 2.43205  13884.5
 2.48176  14050.9
 2.53146  14196.7
 2.58117  14439.4
 2.63087  14763.4
 2.68058  15155.2
 2.73029  15461
 2.77999  15823.4
 2.8297  16117.2
 2.8794  16439.9
 2.92911  16823.1
 2.97882  17193.7
 3.02852  17556.8
 3.07823  17887.9
 3.12794  18213.6
 3.17764  18535.8
 3.22735  18775.8
 3.27705  18936.6
 3.32676  20181.7
 3.37647  42081.7
 3.42617  22012.8
 3.47588  18810.4
 3.52558  17616.1
 3.57529  15784.1
 3.625  14305.8
 3.6747  13046.9
 3.72441  12094.9
 3.77412  11252.3
 3.82382  10859.6
 3.87353  10414.8
 3.92323  9179.22
 3.97294  10548.8
 4.02265  12478.3
 4.07235  8732.33
 4.12206  8888.73
 4.17176  7447.73
 4.22147  7106.86
 4.27118  6905.88
 4.32088  6773.37
 4.37059  6767.53
 4.42029  7623.07
 4.47  11776.2
 4.51971  7905.91
 4.56941  6443.16
 4.61912  6237.84
 4.66883  6114.48
 4.71853  6119.43
 4.76824  6114.26
 4.81794  5797.2
 4.86765  5721.53
 4.91736  5659.88
 4.96706  5555.18
 5.01677  5921.31
 5.06647  5685.58
 5.11618  5438.04
 5.16589  5458.64
 5.21559  5613.33
 5.2653  5735.64
 5.315  5675.27
 5.36471  5899.46
 5.41442  5957.97
 5.46412  6317.57
 5.51383  6924.21
 5.56354  7914.34
 5.61324  8824.01
 5.66295  9442.51
 5.71265  9615.25
 5.76236  9523.53
 5.81207  9408.04
 5.86177  9250.66
 5.91148  13142.8
 5.96118  8371.92
 6.01089  7533.06
 6.0606  7222.48
 6.1103  6983.66
 6.16001  6984.37
 6.20972  6949.79
 6.25942  6864.4
 6.30913  6461.03
 6.35883  6522.35
 6.40854  9874.56
 6.45825  13116.9
 6.50795  7277.18
 6.55766  7027.54
 6.60736  6653.91
 6.65707  6357.26
 6.70678  6598.75
 6.75648  6729.75
 6.80619  6228.37
 6.85589  6099.45
 6.9056  5980.54
 6.95531  6366
 7.00501  6333.05
 7.05472  5846.37
 7.10443  6076.93
 7.15413  6054.42
 7.20384  5673.72
 7.25354  5511.17
 7.30325  5457.09
 7.35296  5447.62
 7.40266  5491
 7.45237  5634.7
 7.50207  6746.24
 7.55178  6658.18
 7.60149  9770.56
 7.65119  6915.87
 7.7009  5535.21
 7.75061  5315.81
 7.80031  5260.1
 7.85002  5304.27
 7.89972  5653.81
 7.94943  5186.59
 7.99914  5433.75
 8.04884  5163.29
 8.09855  5130.27
 8.14825  5206.61
 8.19796  5320.64
 8.24767  4738.48
 8.29737  4649.98
 8.34708  4808.87
 8.39678  4812.38
 8.44649  4992.74
 8.4962  4686.61
 8.5459  4548.66
 8.59561  4756.55
 8.64532  5146.63
 8.69502  5506.44
 8.74473  6836.7
 8.79443  4971.26
 8.84414  4512.69
 8.89385  4478.44
 8.94355  4554
 8.99326  4549.59
 9.04296  4338.71
 9.09267  4295.71
 9.14238  4261.32
 9.19208  4255.91
 9.24179  4271.51
 9.2915  4309.69
 9.3412  4343.09
 9.39091  4437.15
 9.44061  4631.12
 9.49032  5013.56
 9.54003  5070.04
 9.58973  5457.12
 9.63944  6274.1
 9.68914  6797.02
 9.73885  6670.76
 9.78856  6409.57
 9.83826  6380.51
 9.88797  6377.83
 9.93767  6125.93
 9.98738  5972.12
 10.0371  5562.6
 10.0868  5411.17
 10.1365  5511.04
 10.1862  5409.02
 10.2359  5229.13
 10.2856  5487.89
 10.3353  5223.22
 10.385  4952.71
 10.4347  4976.54
 10.4844  4910.19
 10.5341  5081.8
 10.5839  5038.62
 10.6336  4611.95
 10.6833  4533.57
 10.733  4500.05
 10.7827  4406.2
 10.8324  4359.28
 10.8821  4338.82
 10.9318  4347.22
 10.9815  4332.45
 11.0312  4302.21
 11.0809  4295.47
 11.1306  4323
 11.1803  4363.51
 11.23  4389.19
 11.2797  4447.85
 11.3294  4560.73
 11.3792  4401.69
 11.4289  4374.89
 11.4786  4463.73
 11.5283  4306.09
 11.578  4243.53
 11.6277  4215.32
 11.6774  4195.92
 11.7271  4259.85
 11.7768  4375.56
 11.8265  4502.98
 11.8762  4620.36
 11.9259  4329.01
 11.9756  4150.36
 12.0253  4145.91
 12.075  4163.27
 12.1247  4184.14
 12.1745  4133.31
 12.2242  4010.24
 12.2739  3846.91
 12.3236  3788.18
 12.3733  3793.15
 12.423  3871.29
 12.4727  3913.42
 12.5224  3820.96
 12.5721  3751.61
 12.6218  3657.31
 12.6715  3642.49
 12.7212  3626.21
 12.7709  3602.85
 12.8206  3606.65
 12.8703  3750.52
 12.92  3844.14
 12.9697  3638.65
 13.0195  3596.06
 13.0692  3615.24
 13.1189  3626.79
 13.1686  3678.87
 13.2183  3778.79
 13.268  3678.29
 13.3177  3694.93
 13.3674  3623.77
 13.4171  3608.62
 13.4668  3717.3
 13.5165  3698.45
 13.5662  3511.63
 13.6159  3401.91
 13.6656  3393.74
 13.7153  3361.99
 13.765  3442.98
 13.8148  3345.25
 13.8645  3226.34
 13.9142  3105.13
 13.9639  2932.05
 14.0136  2546.68
 14.0633  2251.91
 14.113  1613.26
 14.1627  324.612
 14.1982  0.0000000E+00