Folder: pyScattData/cif_pxrd_calculator/example/txt/iq

Note: README.md
# pyScattData
Processing, analysis, and plotting of scattering data.

If you encounter any bugs or have suggestions for new code or functionalities,
please post an issue here on GitHub. If you refer to a specific script, please
include that in the title of the issue.

Go explore the Bragg peaks and whatever might be hidden underneath them!

## Setup and installation
The following guidelines assume that the user runs a conda distribution, i.e.,
Anaconda or Miniconda. If these guidelines are followed, all dependencies for
the `pyScattData` code will be installed.

### Create a new `pyscattdata` conda environment
- It is highly recommended to run the code in a conda environment dedicated to
  the pyScattData library. If the user does not already have that, such a conda
  environment, called `pyscattdata` and using the latest Python 3 version, can
  be created from:
  ```shell
  conda create -n pyscattdata python=3
  ```

### Activate `pyscattdata` conda environment
- When the user has a `pyscattdata` conda environment, the user should activate
  the pyscattdata conda environment:
  ```shell
  conda activate pyscattdata
  ```

### Install dependencies
- Navigate to the main `pyScattData` directory. Using conda, dependencies
  present in the `run.txt` file in the `requirements` directory will be
  installed from the `conda-forge` channel, when running (NB: this might take
  some time - consider to go for a coffee...):
  ```shell
  conda install -c conda-forge --file requirements/run.txt
  ```
- Using pip, additional dependencies present in the `pip_requirements.txt` file
  in the `requirements` directory will be installed, when running:
  ```shell
  pip install -r requirements/pip_requirements.txt
  ```
- If running on a Unix-based OS (MacOS or Linux), additional dependencies
  present in the `diffpy_extras.txt` file in the `requirements` directory will
  be installed, when running:
  ```shell
  pip install -r requirements/diffpy_extras.txt
  ```
  Unfortunately, these diffpy packages are not available for Windows users.

Now, all `pyScattData` dependencies are installed for the `pyscattdata` conda
environment. You are now ready to run the code present in the `pyScattData`
repository.

File: li0.5tio2_Imma_36449.txt
# Q [Å^-1]	I_scaled [a.u.]
0.000000e+00	0.000000e+00
2.657864e-02	0.000000e+00
5.315727e-02	0.000000e+00
7.973589e-02	0.000000e+00
1.063145e-01	0.000000e+00
1.328931e-01	0.000000e+00
1.594717e-01	0.000000e+00
1.860502e-01	0.000000e+00
2.126287e-01	0.000000e+00
2.392071e-01	0.000000e+00
2.657855e-01	0.000000e+00
2.923639e-01	0.000000e+00
3.189422e-01	0.000000e+00
3.455204e-01	0.000000e+00
3.720986e-01	0.000000e+00
3.986767e-01	0.000000e+00
4.252547e-01	0.000000e+00
4.518327e-01	0.000000e+00
4.784105e-01	0.000000e+00
5.049883e-01	0.000000e+00
5.315660e-01	0.000000e+00
5.581435e-01	0.000000e+00
5.847210e-01	0.000000e+00
6.112983e-01	0.000000e+00
6.378756e-01	0.000000e+00
6.644527e-01	0.000000e+00
6.910297e-01	0.000000e+00
7.176065e-01	0.000000e+00
7.441832e-01	0.000000e+00
7.707598e-01	0.000000e+00
7.973362e-01	0.000000e+00
8.239125e-01	0.000000e+00
8.504886e-01	0.000000e+00
8.770645e-01	0.000000e+00
9.036403e-01	0.000000e+00
9.302159e-01	0.000000e+00
9.567913e-01	0.000000e+00
9.833665e-01	0.000000e+00
1.009942e+00	0.000000e+00
1.036516e+00	0.000000e+00
1.063091e+00	0.000000e+00
1.089666e+00	0.000000e+00
1.116240e+00	0.000000e+00
1.142814e+00	0.000000e+00
1.169388e+00	0.000000e+00
1.195961e+00	0.000000e+00
1.222535e+00	0.000000e+00
1.249108e+00	0.000000e+00
1.275681e+00	0.000000e+00
1.302253e+00	0.000000e+00
1.328826e+00	0.000000e+00
1.355398e+00	0.000000e+00
1.381970e+00	6.089547e-03
1.408541e+00	1.434165e-07
1.435113e+00	0.000000e+00
1.461684e+00	0.000000e+00
1.488254e+00	0.000000e+00
1.514825e+00	9.870712e-41
1.541395e+00	1.352298e-32
1.567965e+00	2.262329e-41
1.594535e+00	0.000000e+00
1.621104e+00	1.892574e-42
1.647673e+00	1.021799e-32
1.674242e+00	6.854969e-04
1.700810e+00	3.893807e-02
1.727378e+00	0.000000e+00
1.753946e+00	0.000000e+00
1.780513e+00	1.058883e-01
1.807080e+00	2.049125e-04
1.833647e+00	0.000000e+00
1.860213e+00	0.000000e+00
1.886779e+00	0.000000e+00
1.913344e+00	0.000000e+00
1.939910e+00	0.000000e+00
1.966475e+00	0.000000e+00
1.993039e+00	0.000000e+00
2.019603e+00	0.000000e+00
2.046167e+00	2.560972e-41
2.072730e+00	4.283381e-32
2.099293e+00	2.134505e-35
2.125856e+00	2.838868e-42
2.152418e+00	1.389348e-31
2.178979e+00	8.303026e-38
2.205541e+00	0.000000e+00
2.232101e+00	8.949800e-73
2.258662e+00	5.880572e-65
2.285222e+00	4.718295e-74
2.311781e+00	0.000000e+00
2.338340e+00	2.033724e-38
2.364899e+00	7.070126e-32
2.391457e+00	3.001385e-42
2.418015e+00	0.000000e+00
2.444572e+00	0.000000e+00
2.471129e+00	0.000000e+00
2.497685e+00	0.000000e+00
2.524241e+00	0.000000e+00
2.550797e+00	0.000000e+00
2.577352e+00	1.854398e-03
2.603906e+00	1.281933e-03
2.630460e+00	3.761939e-06
2.657013e+00	7.198759e-02
2.683566e+00	5.918843e-11
2.710118e+00	0.000000e+00
2.736670e+00	0.000000e+00
2.763221e+00	4.970025e-03
2.789772e+00	3.435746e-03
2.816322e+00	0.000000e+00
2.842872e+00	0.000000e+00
2.869421e+00	0.000000e+00
2.895970e+00	0.000000e+00
2.922518e+00	0.000000e+00
2.949065e+00	0.000000e+00
2.975612e+00	0.000000e+00
3.002159e+00	0.000000e+00
3.028704e+00	0.000000e+00
3.055250e+00	8.014253e-10
3.081794e+00	4.773342e-01
3.108338e+00	3.471693e-09
3.134882e+00	6.861066e-40
3.161424e+00	1.041148e-32
3.187967e+00	6.035873e-35
3.214508e+00	5.363356e-35
3.241049e+00	7.007613e-34
3.267590e+00	0.000000e+00
3.294129e+00	1.642003e-01
3.320668e+00	1.854686e-06
3.347207e+00	8.873260e-40
3.373745e+00	8.756047e-04
3.400282e+00	4.299717e-08
3.426818e+00	0.000000e+00
3.453354e+00	7.957413e-36
3.479889e+00	1.967042e-33
3.506424e+00	1.124642e-34
3.532958e+00	0.000000e+00
3.559491e+00	1.442862e-01
3.586023e+00	6.310838e-03
3.612555e+00	1.489625e-43
3.639086e+00	1.676901e-33
3.665617e+00	2.305140e-40
3.692146e+00	3.030038e-04
3.718675e+00	3.958964e-03
3.745203e+00	4.770195e-35
3.771731e+00	1.829307e-09
3.798258e+00	5.764677e-02
3.824784e+00	5.021723e-05
3.851309e+00	2.585680e-02
3.877834e+00	5.385523e-38
3.904358e+00	1.244404e-32
3.930881e+00	1.056500e-42
3.957403e+00	0.000000e+00
3.983925e+00	0.000000e+00
4.010446e+00	0.000000e+00
4.036966e+00	0.000000e+00
4.063485e+00	8.711580e-03
4.090004e+00	9.839957e-08
4.116521e+00	7.036898e-38
4.143038e+00	1.288393e-01
4.169554e+00	3.001802e-03
4.196070e+00	8.664453e-02
4.222584e+00	6.951950e-11
4.249098e+00	0.000000e+00
4.275611e+00	0.000000e+00
4.302123e+00	1.380213e-02
4.328634e+00	1.161187e-04
4.355145e+00	0.000000e+00
4.381654e+00	0.000000e+00
4.408163e+00	0.000000e+00
4.434671e+00	3.110633e-32
4.461178e+00	6.045023e-33
4.487684e+00	1.793426e-10
4.514190e+00	2.227207e-01
4.540694e+00	3.377513e-09
4.567198e+00	2.015160e-32
4.593700e+00	6.144587e-35
4.620202e+00	2.729009e-33
4.646703e+00	5.277271e-12
4.673203e+00	2.849195e-02
4.699702e+00	2.073784e-09
4.726201e+00	3.514273e-03
4.752698e+00	3.680630e-05
4.779194e+00	3.223390e-33
4.805690e+00	1.300990e-35
4.832185e+00	6.774637e-34
4.858678e+00	2.520120e-33
4.885171e+00	1.845982e-39
4.911663e+00	5.334353e-04
4.938154e+00	3.342701e-03
4.964644e+00	7.456625e-33
4.991132e+00	8.891645e-03
5.017620e+00	3.511844e-04
5.044108e+00	2.421422e-04
5.070594e+00	2.186262e-02
5.097079e+00	3.353085e-02
5.123563e+00	1.662058e-04
5.150046e+00	1.701362e-08
5.176528e+00	3.357844e-03
5.203009e+00	8.724113e-09
5.229489e+00	1.145194e-32
5.255968e+00	8.329096e-41
5.282447e+00	2.321204e-05
5.308924e+00	2.832247e-02
5.335400e+00	4.239343e-09
5.361875e+00	1.279623e-02
5.388349e+00	3.100546e-07
5.414822e+00	3.123870e-38
5.441294e+00	2.368964e-32
5.467765e+00	0.000000e+00
5.494235e+00	0.000000e+00
5.520703e+00	1.461381e-33
5.547171e+00	8.946316e-03
5.573638e+00	4.846439e-08
5.600104e+00	4.905477e-35
5.626568e+00	4.896470e-05
5.653032e+00	3.384898e-05
5.679494e+00	6.739668e-33
5.705955e+00	1.422808e-05
5.732415e+00	1.685129e-03
5.758874e+00	1.505912e-08
5.785332e+00	5.775392e-03
5.811789e+00	4.424062e-37
5.838245e+00	1.294421e-33
5.864700e+00	7.277403e-03
5.891153e+00	2.086765e-04
5.917606e+00	0.000000e+00
5.944057e+00	0.000000e+00
5.970507e+00	1.026610e-06
5.996956e+00	1.117096e-02
6.023404e+00	1.001700e-07
6.049850e+00	3.942397e-02
6.076296e+00	1.079596e-02
6.102740e+00	0.000000e+00
6.129183e+00	3.641911e-05
6.155625e+00	3.132615e-03
6.182066e+00	3.447275e-04
6.208506e+00	1.366908e-06
6.234944e+00	4.333484e-32
6.261381e+00	7.181239e-36
6.287817e+00	0.000000e+00
6.314252e+00	1.427187e-04
6.340685e+00	1.222577e-03
6.367118e+00	1.028566e-05
6.393549e+00	3.433732e-10
6.419979e+00	2.257654e-02
6.446408e+00	1.783268e-03
6.472835e+00	8.084035e-04
6.499261e+00	9.048492e-34
6.525686e+00	1.909086e-33
6.552110e+00	2.754909e-33
6.578532e+00	1.036837e-07
6.604953e+00	9.146542e-03
6.631373e+00	1.434301e-06
6.657792e+00	1.143152e-02
6.684209e+00	4.943224e-09
6.710625e+00	6.573049e-03
6.737040e+00	4.833649e-05
6.763454e+00	2.556582e-02
6.789866e+00	2.464229e-02
6.816277e+00	7.877442e-03
6.842686e+00	0.000000e+00
6.869095e+00	0.000000e+00
6.895501e+00	5.798207e-07
6.921907e+00	1.298835e-03
6.948311e+00	4.488984e-04
6.974714e+00	6.616707e-06
7.001116e+00	3.406937e-03
7.027516e+00	4.879770e-33
7.053915e+00	6.850933e-34
7.080313e+00	8.469113e-04
7.106709e+00	3.417682e-06
7.133104e+00	1.675231e-04
7.159497e+00	8.814472e-02
7.185889e+00	1.197030e-10
7.212280e+00	2.394867e-07
7.238669e+00	5.360922e-04
7.265057e+00	3.048241e-02
7.291444e+00	8.060730e-03
7.317829e+00	1.456637e-03
7.344213e+00	9.601677e-11
7.370595e+00	0.000000e+00
7.396976e+00	1.602163e-05
7.423355e+00	1.343971e-04
7.449733e+00	5.684250e-05
7.476110e+00	7.032208e-03
7.502485e+00	1.790865e-07
7.528859e+00	1.579803e-02
7.555231e+00	3.176163e-38
7.581602e+00	8.237328e-05
7.607971e+00	2.167103e-03
7.634339e+00	4.857741e-08
7.660706e+00	1.953176e-10
7.687071e+00	2.951971e-03
7.713434e+00	7.589329e-10
7.739796e+00	2.636494e-03
7.766157e+00	4.843021e-04
7.792516e+00	2.783839e-02
7.818874e+00	1.662219e-04
7.845230e+00	1.184587e-32
7.871584e+00	2.600103e-39
7.897937e+00	1.504268e-34
7.915837e+00	2.658514e-33

File: li0.5tio2_li0.5tio2_8262.txt
# Q [Å^-1]	I_scaled [a.u.]
0.000000e+00	0.000000e+00
2.657864e-02	0.000000e+00
5.315727e-02	0.000000e+00
7.973589e-02	0.000000e+00
1.063145e-01	0.000000e+00
1.328931e-01	0.000000e+00
1.594717e-01	0.000000e+00
1.860502e-01	0.000000e+00
2.126287e-01	0.000000e+00
2.392071e-01	0.000000e+00
2.657855e-01	0.000000e+00
2.923639e-01	0.000000e+00
3.189422e-01	0.000000e+00
3.455204e-01	0.000000e+00
3.720986e-01	0.000000e+00
3.986767e-01	0.000000e+00
4.252547e-01	0.000000e+00
4.518327e-01	0.000000e+00
4.784105e-01	0.000000e+00
5.049883e-01	0.000000e+00
5.315660e-01	0.000000e+00
5.581435e-01	0.000000e+00
5.847210e-01	0.000000e+00
6.112983e-01	0.000000e+00
6.378756e-01	9.485263e-36
6.644527e-01	1.924688e-31
6.910297e-01	0.000000e+00
7.176065e-01	0.000000e+00
7.441832e-01	0.000000e+00
7.707598e-01	0.000000e+00
7.973362e-01	0.000000e+00
8.239125e-01	0.000000e+00
8.504886e-01	0.000000e+00
8.770645e-01	0.000000e+00
9.036403e-01	0.000000e+00
9.302159e-01	0.000000e+00
9.567913e-01	0.000000e+00
9.833665e-01	0.000000e+00
1.009942e+00	0.000000e+00
1.036516e+00	0.000000e+00
1.063091e+00	0.000000e+00
1.089666e+00	0.000000e+00
1.116240e+00	0.000000e+00
1.142814e+00	0.000000e+00
1.169388e+00	0.000000e+00
1.195961e+00	0.000000e+00
1.222535e+00	6.254087e-44
1.249108e+00	3.060764e-33
1.275681e+00	1.829174e-39
1.302253e+00	7.588216e-05
1.328826e+00	4.755053e-04
1.355398e+00	0.000000e+00
1.381970e+00	0.000000e+00
1.408541e+00	3.100337e-01
1.435113e+00	1.522442e-05
1.461684e+00	0.000000e+00
1.488254e+00	0.000000e+00
1.514825e+00	0.000000e+00
1.541395e+00	0.000000e+00
1.567965e+00	0.000000e+00
1.594535e+00	0.000000e+00
1.621104e+00	0.000000e+00
1.647673e+00	0.000000e+00
1.674242e+00	0.000000e+00
1.700810e+00	0.000000e+00
1.727378e+00	0.000000e+00
1.753946e+00	0.000000e+00
1.780513e+00	0.000000e+00
1.807080e+00	3.823276e-03
1.833647e+00	3.216560e-05
1.860213e+00	0.000000e+00
1.886779e+00	0.000000e+00
1.913344e+00	0.000000e+00
1.939910e+00	0.000000e+00
1.966475e+00	1.243178e-32
1.993039e+00	1.153815e-35
2.019603e+00	0.000000e+00
2.046167e+00	0.000000e+00
2.072730e+00	0.000000e+00
2.099293e+00	0.000000e+00
2.125856e+00	9.223361e-34
2.152418e+00	1.969049e-37
2.178979e+00	0.000000e+00
2.205541e+00	1.683757e-40
2.232101e+00	1.002856e-31
2.258662e+00	7.293862e-40
2.285222e+00	0.000000e+00
2.311781e+00	6.530241e-10
2.338340e+00	3.889455e-01
2.364899e+00	2.828834e-09
2.391457e+00	0.000000e+00
2.418015e+00	0.000000e+00
2.444572e+00	1.195660e-12
2.471129e+00	1.345978e-02
2.497685e+00	2.942497e-02
2.524241e+00	4.480981e-05
2.550797e+00	2.575663e-02
2.577352e+00	5.523715e-05
2.603906e+00	1.788208e-06
2.630460e+00	1.581694e-02
2.657013e+00	4.533461e-09
2.683566e+00	0.000000e+00
2.710118e+00	0.000000e+00
2.736670e+00	0.000000e+00
2.763221e+00	0.000000e+00
2.789772e+00	4.010684e-03
2.816322e+00	1.417921e-03
2.842872e+00	1.271187e-04
2.869421e+00	0.000000e+00
2.895970e+00	6.654392e-07
2.922518e+00	1.350266e-02
2.949065e+00	0.000000e+00
2.975612e+00	0.000000e+00
3.002159e+00	0.000000e+00
3.028704e+00	0.000000e+00
3.055250e+00	0.000000e+00
3.081794e+00	0.000000e+00
3.108338e+00	0.000000e+00
3.134882e+00	0.000000e+00
3.161424e+00	9.264386e-02
3.187967e+00	6.880981e-02
3.214508e+00	4.536507e-09
3.241049e+00	0.000000e+00
3.267590e+00	1.099821e-38
3.294129e+00	4.505009e-32
3.320668e+00	3.281660e-42
3.347207e+00	2.693114e-04
3.373745e+00	3.979290e-05
3.400282e+00	1.077259e-03
3.426818e+00	0.000000e+00
3.453354e+00	0.000000e+00
3.479889e+00	0.000000e+00
3.506424e+00	4.758891e-06
3.532958e+00	1.311336e-02
3.559491e+00	4.748873e-04
3.586023e+00	1.182095e-11
3.612555e+00	7.040951e-03
3.639086e+00	1.219262e-01
3.665617e+00	0.000000e+00
3.692146e+00	0.000000e+00
3.718675e+00	0.000000e+00
3.745203e+00	4.235454e-34
3.771731e+00	1.404251e-34
3.798258e+00	2.017817e-06
3.824784e+00	1.178074e-03
3.851309e+00	6.491866e-04
3.877834e+00	0.000000e+00
3.904358e+00	2.266301e-35
3.930881e+00	2.358562e-07
3.957403e+00	2.295307e-03
3.983925e+00	2.278773e-02
4.010446e+00	4.205630e-12
4.036966e+00	0.000000e+00
4.063485e+00	0.000000e+00
4.090004e+00	8.857697e-11
4.116521e+00	2.293593e-01
4.143038e+00	5.897564e-03
4.169554e+00	1.674958e-11
4.196070e+00	6.963338e-07
4.222584e+00	1.558790e-03
4.249098e+00	3.539044e-02
4.275611e+00	1.347224e-02
4.302123e+00	2.221079e-06
4.328634e+00	1.036668e-02
4.355145e+00	1.328654e-04
4.381654e+00	7.547114e-03
4.408163e+00	0.000000e+00
4.434671e+00	1.184876e-34
4.461178e+00	1.130728e-03
4.487684e+00	1.484580e-01
4.514190e+00	2.839609e-03
4.540694e+00	8.129735e-10
4.567198e+00	2.801860e-08
4.593700e+00	5.153599e-03
4.620202e+00	1.472644e-06
4.646703e+00	8.086038e-04
4.673203e+00	8.734209e-03
4.699702e+00	2.250890e-08
4.726201e+00	2.333616e-10
4.752698e+00	7.353921e-03
4.779194e+00	3.182611e-02
4.805690e+00	6.479781e-13
4.832185e+00	0.000000e+00
4.858678e+00	2.127237e-02
4.885171e+00	2.178037e-06
4.911663e+00	0.000000e+00
4.938154e+00	1.088912e-03
4.964644e+00	4.393706e-06
4.991132e+00	1.142081e-02
5.017620e+00	9.800435e-03
5.044108e+00	3.236697e-03
5.070594e+00	1.104893e-03
5.097079e+00	1.581980e-09
5.123563e+00	2.640540e-03
5.150046e+00	1.485390e-03
5.176528e+00	1.376998e-03
5.203009e+00	3.249160e-10
5.229489e+00	2.381010e-03
5.255968e+00	5.690385e-04
5.282447e+00	1.666096e-05
5.308924e+00	1.683043e-06
5.335400e+00	3.767497e-03
5.361875e+00	3.344176e-11
5.388349e+00	1.162587e-04
5.414822e+00	1.701315e-02
5.441294e+00	1.547717e-03
5.467765e+00	2.641464e-05
5.494235e+00	3.361654e-03
5.520703e+00	4.161424e-05
5.547171e+00	6.617119e-06
5.573638e+00	2.209762e-12
5.600104e+00	6.991564e-02
5.626568e+00	2.474117e-07
5.653032e+00	3.516824e-03
5.679494e+00	1.022808e-02
5.705955e+00	6.594262e-07
5.732415e+00	3.380288e-04
5.758874e+00	0.000000e+00
5.785332e+00	1.153575e-03
5.811789e+00	4.812515e-03
5.838245e+00	1.693370e-02
5.864700e+00	4.974314e-04
5.891153e+00	0.000000e+00
5.917606e+00	1.299345e-10
5.944057e+00	3.419864e-02
5.970507e+00	4.884183e-09
5.996956e+00	1.200417e-02
6.023404e+00	1.811050e-02
6.049850e+00	6.907256e-03
6.076296e+00	5.102947e-09
6.102740e+00	0.000000e+00
6.129183e+00	0.000000e+00
6.155625e+00	0.000000e+00
6.182066e+00	3.656257e-12
6.208506e+00	1.974010e-02
6.234944e+00	1.301432e-09
6.261381e+00	3.537469e-03
6.287817e+00	7.586510e-04
6.314252e+00	6.213266e-05
6.340685e+00	8.521080e-04
6.367118e+00	2.386043e-03
6.393549e+00	6.497982e-03
6.419979e+00	3.074078e-02
6.446408e+00	4.875340e-05
6.472835e+00	3.962019e-04
6.499261e+00	5.838602e-10
6.525686e+00	2.050177e-03
6.552110e+00	1.092915e-02
6.578532e+00	1.368472e-02
6.604953e+00	2.558370e-03
6.631373e+00	1.990931e-05
6.657792e+00	5.733780e-03
6.684209e+00	2.680067e-08
6.710625e+00	2.277344e-04
6.737040e+00	1.060463e-03
6.763454e+00	1.514527e-03
6.789866e+00	2.100279e-03
6.816277e+00	1.311968e-02
6.842686e+00	1.758888e-12
6.869095e+00	2.678282e-05
6.895501e+00	1.198250e-02
6.921907e+00	1.471686e-02
6.948311e+00	3.846115e-10
6.974714e+00	7.496880e-09
7.001116e+00	2.606337e-02
7.027516e+00	3.428313e-04
7.053915e+00	4.784827e-04
7.080313e+00	2.116894e-03
7.106709e+00	8.068022e-05
7.133104e+00	2.815560e-02
7.159497e+00	1.637222e-03
7.185889e+00	4.613497e-34
7.212280e+00	3.238490e-05
7.238669e+00	2.029356e-04
7.265057e+00	1.647610e-03
7.291444e+00	1.351655e-04
7.317829e+00	2.780667e-02
7.344213e+00	8.347759e-03
7.370595e+00	1.383630e-03
7.396976e+00	5.737142e-03
7.423355e+00	6.287745e-03
7.449733e+00	2.061357e-02
7.476110e+00	6.517896e-10
7.502485e+00	2.478576e-05
7.528859e+00	4.579832e-03
7.555231e+00	2.021003e-04
7.581602e+00	1.365246e-03
7.607971e+00	8.943151e-03
7.634339e+00	5.006974e-04
7.660706e+00	3.732552e-04
7.687071e+00	9.613705e-03
7.713434e+00	3.080063e-03
7.739796e+00	2.731392e-05
7.766157e+00	3.950169e-03
7.792516e+00	8.289093e-07
7.818874e+00	2.768779e-05
7.845230e+00	1.049924e-02
7.871584e+00	7.047306e-03
7.897937e+00	2.594756e-03
7.915837e+00	3.941819e-06

File: li0.5tio2_li2fev3o8_180011.txt
# Q [Å^-1]	I_scaled [a.u.]
0.000000e+00	0.000000e+00
2.657864e-02	0.000000e+00
5.315727e-02	0.000000e+00
7.973589e-02	0.000000e+00
1.063145e-01	0.000000e+00
1.328931e-01	0.000000e+00
1.594717e-01	0.000000e+00
1.860502e-01	0.000000e+00
2.126287e-01	0.000000e+00
2.392071e-01	0.000000e+00
2.657855e-01	0.000000e+00
2.923639e-01	0.000000e+00
3.189422e-01	0.000000e+00
3.455204e-01	0.000000e+00
3.720986e-01	0.000000e+00
3.986767e-01	0.000000e+00
4.252547e-01	0.000000e+00
4.518327e-01	0.000000e+00
4.784105e-01	0.000000e+00
5.049883e-01	1.216072e-37
5.315660e-01	1.837934e-30
5.581435e-01	3.392032e-40
5.847210e-01	0.000000e+00
6.112983e-01	0.000000e+00
6.378756e-01	0.000000e+00
6.644527e-01	0.000000e+00
6.910297e-01	0.000000e+00
7.176065e-01	0.000000e+00
7.441832e-01	0.000000e+00
7.707598e-01	0.000000e+00
7.973362e-01	0.000000e+00
8.239125e-01	0.000000e+00
8.504886e-01	0.000000e+00
8.770645e-01	0.000000e+00
9.036403e-01	0.000000e+00
9.302159e-01	0.000000e+00
9.567913e-01	0.000000e+00
9.833665e-01	8.552525e-35
1.009942e+00	1.791002e-02
1.036516e+00	2.847988e-03
1.063091e+00	1.655578e-01
1.089666e+00	3.370748e-12
1.116240e+00	0.000000e+00
1.142814e+00	0.000000e+00
1.169388e+00	0.000000e+00
1.195961e+00	0.000000e+00
1.222535e+00	2.910234e-02
1.249108e+00	7.561165e-08
1.275681e+00	4.160208e-33
1.302253e+00	1.521621e-34
1.328826e+00	0.000000e+00
1.355398e+00	0.000000e+00
1.381970e+00	0.000000e+00
1.408541e+00	0.000000e+00
1.435113e+00	0.000000e+00
1.461684e+00	0.000000e+00
1.488254e+00	0.000000e+00
1.514825e+00	0.000000e+00
1.541395e+00	0.000000e+00
1.567965e+00	3.995522e-37
1.594535e+00	7.685742e-32
1.621104e+00	2.566842e-34
1.647673e+00	1.377985e-32
1.674242e+00	2.898843e-03
1.700810e+00	6.190251e-07
1.727378e+00	8.951381e-01
1.753946e+00	5.901495e-08
1.780513e+00	0.000000e+00
1.807080e+00	0.000000e+00
1.833647e+00	0.000000e+00
1.860213e+00	0.000000e+00
1.886779e+00	0.000000e+00
1.913344e+00	1.142792e-05
1.939910e+00	4.179832e-07
1.966475e+00	1.428481e-11
1.993039e+00	3.698874e-02
2.019603e+00	5.338065e-08
2.046167e+00	4.681295e-01
2.072730e+00	7.460222e-05
2.099293e+00	8.316870e-03
2.125856e+00	5.592007e-02
2.152418e+00	1.569595e-34
2.178979e+00	2.231754e-32
2.205541e+00	0.000000e+00
2.232101e+00	0.000000e+00
2.258662e+00	8.998719e-12
2.285222e+00	2.116267e-01
2.311781e+00	2.566969e-03
2.338340e+00	1.390024e-34
2.364899e+00	1.816168e-33
2.391457e+00	0.000000e+00
2.418015e+00	0.000000e+00
2.444572e+00	9.245964e-03
2.471129e+00	7.778721e-05
2.497685e+00	0.000000e+00
2.524241e+00	1.474113e-10
2.550797e+00	4.210875e-02
2.577352e+00	2.804947e-03
2.603906e+00	2.433185e-04
2.630460e+00	3.179133e-03
2.657013e+00	2.414050e-32
2.683566e+00	2.442595e-04
2.710118e+00	4.494558e-04
2.736670e+00	2.653001e-03
2.763221e+00	0.000000e+00
2.789772e+00	2.253114e-03
2.816322e+00	2.091153e-06
2.842872e+00	0.000000e+00
2.869421e+00	0.000000e+00
2.895970e+00	3.358338e-11
2.922518e+00	4.600959e-03
2.949065e+00	7.697180e-12
2.975612e+00	8.903393e-36
3.002159e+00	4.822580e-06
3.028704e+00	3.842004e-01
3.055250e+00	2.610448e-02
3.081794e+00	4.579191e-04
3.108338e+00	4.435574e-06
3.134882e+00	1.954773e-06
3.161424e+00	4.920154e-05
3.187967e+00	3.949032e-04
3.214508e+00	6.378205e-02
3.241049e+00	1.159941e-05
3.267590e+00	7.271707e-05
3.294129e+00	4.675587e-01
3.320668e+00	8.629113e-11
3.347207e+00	2.237969e-06
3.373745e+00	5.046051e-02
3.400282e+00	5.591645e-05
3.426818e+00	3.510032e-04
3.453354e+00	3.704543e-02
3.479889e+00	5.094859e-08
3.506424e+00	1.166219e-03
3.532958e+00	1.802775e-02
3.559491e+00	6.306580e-09
3.586023e+00	8.389258e-32
3.612555e+00	1.186598e-03
3.639086e+00	1.961626e-04
3.665617e+00	3.493117e-02
3.692146e+00	2.395779e-03
3.718675e+00	7.958147e-09
3.745203e+00	4.330367e-07
3.771731e+00	2.021158e-03
3.798258e+00	1.891431e-33
3.824784e+00	7.018760e-10
3.851309e+00	1.060797e-02
3.877834e+00	1.814045e-01
3.904358e+00	1.270826e-01
3.930881e+00	7.154443e-05
3.957403e+00	8.933752e-33
3.983925e+00	4.495221e-02
4.010446e+00	4.866471e-03
4.036966e+00	2.720386e-03
4.063485e+00	3.815088e-03
4.090004e+00	3.198631e-04
4.116521e+00	4.343876e-03
4.143038e+00	4.852178e-03
4.169554e+00	1.289364e-04
4.196070e+00	9.460568e-02
4.222584e+00	4.067528e-02
4.249098e+00	9.662337e-03
4.275611e+00	5.546312e-02
4.302123e+00	1.230501e-06
4.328634e+00	3.957389e-05
4.355145e+00	2.168626e-02
4.381654e+00	2.359065e-08
4.408163e+00	5.120743e-03
4.434671e+00	5.692087e-06
4.461178e+00	1.551092e-02
4.487684e+00	1.065109e-02
4.514190e+00	3.694396e-04
4.540694e+00	7.414238e-07
4.567198e+00	1.797702e-04
4.593700e+00	1.675759e-02
4.620202e+00	3.804553e-07
4.646703e+00	5.742067e-04
4.673203e+00	1.225845e-07
4.699702e+00	9.484816e-04
4.726201e+00	2.024865e-07
4.752698e+00	4.155068e-32
4.779194e+00	2.756479e-32
4.805690e+00	6.178318e-11
4.832185e+00	8.464487e-03
4.858678e+00	2.666042e-04
4.885171e+00	4.917765e-02
4.911663e+00	1.183730e-02
4.938154e+00	1.410624e-02
4.964644e+00	3.452002e-02
4.991132e+00	2.275847e-09
5.017620e+00	7.774149e-03
5.044108e+00	2.080703e-03
5.070594e+00	3.233896e-03
5.097079e+00	1.116023e-02
5.123563e+00	2.708449e-03
5.150046e+00	1.064835e-02
5.176528e+00	3.955012e-02
5.203009e+00	9.189617e-04
5.229489e+00	1.426606e-03
5.255968e+00	6.732396e-03
5.282447e+00	3.153804e-06
5.308924e+00	6.774626e-03
5.335400e+00	7.901223e-08
5.361875e+00	3.179102e-02
5.388349e+00	3.136508e-02
5.414822e+00	1.788491e-06
5.441294e+00	4.974989e-03
5.467765e+00	8.179910e-05
5.494235e+00	1.024362e-03
5.520703e+00	4.514590e-04
5.547171e+00	1.472431e-02
5.573638e+00	2.738824e-04
5.600104e+00	1.389622e-05
5.626568e+00	7.889853e-04
5.653032e+00	1.032610e-13
5.679494e+00	5.578791e-04
5.705955e+00	1.432646e-03
5.732415e+00	2.996252e-04
5.758874e+00	3.234945e-03
5.785332e+00	1.578184e-03
5.811789e+00	2.600841e-05
5.838245e+00	1.357233e-02
5.864700e+00	2.001489e-08
5.891153e+00	7.880949e-03
5.917606e+00	2.355375e-02
5.944057e+00	2.947583e-04
5.970507e+00	3.294533e-04
5.996956e+00	1.773460e-04
6.023404e+00	3.700383e-03
6.049850e+00	2.372029e-02
6.076296e+00	7.870882e-02
6.102740e+00	4.397781e-03
6.129183e+00	2.286237e-02
6.155625e+00	2.374505e-04
6.182066e+00	7.150068e-03
6.208506e+00	9.082619e-04
6.234944e+00	2.847342e-02
6.261381e+00	5.986264e-03
6.287817e+00	1.795866e-03
6.314252e+00	1.402033e-05
6.340685e+00	9.137487e-03
6.367118e+00	3.656244e-03
6.393549e+00	1.980452e-08
6.419979e+00	1.547015e-04
6.446408e+00	1.250024e-02
6.472835e+00	1.054935e-11
6.499261e+00	1.235130e-04
6.525686e+00	2.053399e-02
6.552110e+00	3.913378e-07
6.578532e+00	1.455212e-02
6.604953e+00	1.182312e-05
6.631373e+00	4.718771e-05
6.657792e+00	3.039712e-03
6.684209e+00	1.447869e-02
6.710625e+00	2.277200e-03
6.737040e+00	6.532230e-04
6.763454e+00	3.476932e-02
6.789866e+00	3.477103e-03
6.816277e+00	1.133533e-02
6.842686e+00	3.089624e-03
6.869095e+00	2.478232e-04
6.895501e+00	3.055752e-02
6.921907e+00	4.286115e-03
6.948311e+00	2.396394e-03
6.974714e+00	1.718046e-03
7.001116e+00	1.244955e-04
7.027516e+00	2.133915e-02
7.053915e+00	1.773477e-02
7.080313e+00	1.921332e-02
7.106709e+00	3.447162e-03
7.133104e+00	1.431572e-07
7.159497e+00	9.506202e-04
7.185889e+00	8.073092e-05
7.212280e+00	2.949487e-04
7.238669e+00	1.085832e-02
7.265057e+00	4.165608e-02
7.291444e+00	6.582224e-04
7.317829e+00	2.480735e-03
7.344213e+00	4.938778e-05
7.370595e+00	5.071968e-04
7.396976e+00	1.830027e-02
7.423355e+00	3.261558e-03
7.449733e+00	1.401193e-02
7.476110e+00	1.921120e-03
7.502485e+00	6.335596e-04
7.528859e+00	1.480282e-02
7.555231e+00	9.580567e-03
7.581602e+00	1.272647e-03
7.607971e+00	2.052393e-03
7.634339e+00	2.482099e-02
7.660706e+00	3.492930e-04
7.687071e+00	8.397773e-04
7.713434e+00	1.514010e-04
7.739796e+00	1.425241e-04
7.766157e+00	1.036502e-03
7.792516e+00	1.753885e-02
7.818874e+00	5.674377e-03
7.845230e+00	8.613401e-03
7.871584e+00	8.641270e-03
7.897937e+00	5.045511e-03
7.915837e+00	1.063687e-06