Folder: pyScattData/cif_pxrd_calculator/example/txt/itwotheta

Note: README.md
# pyScattData
Processing, analysis, and plotting of scattering data.

If you encounter any bugs or have suggestions for new code or functionalities,
please post an issue here on GitHub. If you refer to a specific script, please
include that in the title of the issue.

Go explore the Bragg peaks and whatever might be hidden underneath them!

## Setup and installation
The following guidelines assume that the user runs a conda distribution, i.e.,
Anaconda or Miniconda. If these guidelines are followed, all dependencies for
the `pyScattData` code will be installed.

### Create a new `pyscattdata` conda environment
- It is highly recommended to run the code in a conda environment dedicated to
  the pyScattData library. If the user does not already have that, such a conda
  environment, called `pyscattdata` and using the latest Python 3 version, can
  be created from:
  ```shell
  conda create -n pyscattdata python=3
  ```

### Activate `pyscattdata` conda environment
- When the user has a `pyscattdata` conda environment, the user should activate
  the pyscattdata conda environment:
  ```shell
  conda activate pyscattdata
  ```

### Install dependencies
- Navigate to the main `pyScattData` directory. Using conda, dependencies
  present in the `run.txt` file in the `requirements` directory will be
  installed from the `conda-forge` channel, when running (NB: this might take
  some time - consider to go for a coffee...):
  ```shell
  conda install -c conda-forge --file requirements/run.txt
  ```
- Using pip, additional dependencies present in the `pip_requirements.txt` file
  in the `requirements` directory will be installed, when running:
  ```shell
  pip install -r requirements/pip_requirements.txt
  ```
- If running on a Unix-based OS (MacOS or Linux), additional dependencies
  present in the `diffpy_extras.txt` file in the `requirements` directory will
  be installed, when running:
  ```shell
  pip install -r requirements/diffpy_extras.txt
  ```
  Unfortunately, these diffpy packages are not available for Windows users.

Now, all `pyScattData` dependencies are installed for the `pyscattdata` conda
environment. You are now ready to run the code present in the `pyScattData`
repository.

File: li0.5tio2_Imma_36449.txt
# 2theta [deg]	I_scaled [a.u.]	Wavelength = 0.20721 Å
0.000000e+00	0.000000e+00
5.022110e-02	0.000000e+00
1.004422e-01	0.000000e+00
1.506633e-01	0.000000e+00
2.008844e-01	0.000000e+00
2.511055e-01	0.000000e+00
3.013266e-01	0.000000e+00
3.515477e-01	0.000000e+00
4.017688e-01	0.000000e+00
4.519899e-01	0.000000e+00
5.022110e-01	0.000000e+00
5.524321e-01	0.000000e+00
6.026532e-01	0.000000e+00
6.528743e-01	0.000000e+00
7.030954e-01	0.000000e+00
7.533165e-01	0.000000e+00
8.035376e-01	0.000000e+00
8.537587e-01	0.000000e+00
9.039798e-01	0.000000e+00
9.542009e-01	0.000000e+00
1.004422e+00	0.000000e+00
1.054643e+00	0.000000e+00
1.104864e+00	0.000000e+00
1.155085e+00	0.000000e+00
1.205306e+00	0.000000e+00
1.255527e+00	0.000000e+00
1.305749e+00	0.000000e+00
1.355970e+00	0.000000e+00
1.406191e+00	0.000000e+00
1.456412e+00	0.000000e+00
1.506633e+00	0.000000e+00
1.556854e+00	0.000000e+00
1.607075e+00	0.000000e+00
1.657296e+00	0.000000e+00
1.707517e+00	0.000000e+00
1.757738e+00	0.000000e+00
1.807960e+00	0.000000e+00
1.858181e+00	0.000000e+00
1.908402e+00	0.000000e+00
1.958623e+00	0.000000e+00
2.008844e+00	0.000000e+00
2.059065e+00	0.000000e+00
2.109286e+00	0.000000e+00
2.159507e+00	0.000000e+00
2.209728e+00	0.000000e+00
2.259949e+00	0.000000e+00
2.310171e+00	0.000000e+00
2.360392e+00	0.000000e+00
2.410613e+00	0.000000e+00
2.460834e+00	0.000000e+00
2.511055e+00	0.000000e+00
2.561276e+00	0.000000e+00
2.611497e+00	6.089547e-03
2.661718e+00	1.434165e-07
2.711939e+00	0.000000e+00
2.762160e+00	0.000000e+00
2.812382e+00	0.000000e+00
2.862603e+00	9.870712e-41
2.912824e+00	1.352298e-32
2.963045e+00	2.262329e-41
3.013266e+00	0.000000e+00
3.063487e+00	1.892574e-42
3.113708e+00	1.021799e-32
3.163929e+00	6.854969e-04
3.214150e+00	3.893807e-02
3.264371e+00	0.000000e+00
3.314593e+00	0.000000e+00
3.364814e+00	1.058883e-01
3.415035e+00	2.049125e-04
3.465256e+00	0.000000e+00
3.515477e+00	0.000000e+00
3.565698e+00	0.000000e+00
3.615919e+00	0.000000e+00
3.666140e+00	0.000000e+00
3.716361e+00	0.000000e+00
3.766582e+00	0.000000e+00
3.816804e+00	0.000000e+00
3.867025e+00	2.560972e-41
3.917246e+00	4.283381e-32
3.967467e+00	2.134505e-35
4.017688e+00	2.838868e-42
4.067909e+00	1.389348e-31
4.118130e+00	8.303026e-38
4.168351e+00	0.000000e+00
4.218572e+00	8.949800e-73
4.268793e+00	5.880572e-65
4.319015e+00	4.718295e-74
4.369236e+00	0.000000e+00
4.419457e+00	2.033724e-38
4.469678e+00	7.070126e-32
4.519899e+00	3.001385e-42
4.570120e+00	0.000000e+00
4.620341e+00	0.000000e+00
4.670562e+00	0.000000e+00
4.720783e+00	0.000000e+00
4.771004e+00	0.000000e+00
4.821226e+00	0.000000e+00
4.871447e+00	1.854398e-03
4.921668e+00	1.281933e-03
4.971889e+00	3.761939e-06
5.022110e+00	7.198759e-02
5.072331e+00	5.918843e-11
5.122552e+00	0.000000e+00
5.172773e+00	0.000000e+00
5.222994e+00	4.970025e-03
5.273215e+00	3.435746e-03
5.323437e+00	0.000000e+00
5.373658e+00	0.000000e+00
5.423879e+00	0.000000e+00
5.474100e+00	0.000000e+00
5.524321e+00	0.000000e+00
5.574542e+00	0.000000e+00
5.624763e+00	0.000000e+00
5.674984e+00	0.000000e+00
5.725205e+00	0.000000e+00
5.775426e+00	8.014253e-10
5.825648e+00	4.773342e-01
5.875869e+00	3.471693e-09
5.926090e+00	6.861066e-40
5.976311e+00	1.041148e-32
6.026532e+00	6.035873e-35
6.076753e+00	5.363356e-35
6.126974e+00	7.007613e-34
6.177195e+00	0.000000e+00
6.227416e+00	1.642003e-01
6.277637e+00	1.854686e-06
6.327858e+00	8.873260e-40
6.378080e+00	8.756047e-04
6.428301e+00	4.299717e-08
6.478522e+00	0.000000e+00
6.528743e+00	7.957413e-36
6.578964e+00	1.967042e-33
6.629185e+00	1.124642e-34
6.679406e+00	0.000000e+00
6.729627e+00	1.442862e-01
6.779848e+00	6.310838e-03
6.830069e+00	1.489625e-43
6.880291e+00	1.676901e-33
6.930512e+00	2.305140e-40
6.980733e+00	3.030038e-04
7.030954e+00	3.958964e-03
7.081175e+00	4.770195e-35
7.131396e+00	1.829307e-09
7.181617e+00	5.764677e-02
7.231838e+00	5.021723e-05
7.282059e+00	2.585680e-02
7.332280e+00	5.385523e-38
7.382502e+00	1.244404e-32
7.432723e+00	1.056500e-42
7.482944e+00	0.000000e+00
7.533165e+00	0.000000e+00
7.583386e+00	0.000000e+00
7.633607e+00	0.000000e+00
7.683828e+00	8.711580e-03
7.734049e+00	9.839957e-08
7.784270e+00	7.036898e-38
7.834491e+00	1.288393e-01
7.884713e+00	3.001802e-03
7.934934e+00	8.664453e-02
7.985155e+00	6.951950e-11
8.035376e+00	0.000000e+00
8.085597e+00	0.000000e+00
8.135818e+00	1.380213e-02
8.186039e+00	1.161187e-04
8.236260e+00	0.000000e+00
8.286481e+00	0.000000e+00
8.336702e+00	0.000000e+00
8.386924e+00	3.110633e-32
8.437145e+00	6.045023e-33
8.487366e+00	1.793426e-10
8.537587e+00	2.227207e-01
8.587808e+00	3.377513e-09
8.638029e+00	2.015160e-32
8.688250e+00	6.144587e-35
8.738471e+00	2.729009e-33
8.788692e+00	5.277271e-12
8.838913e+00	2.849195e-02
8.889135e+00	2.073784e-09
8.939356e+00	3.514273e-03
8.989577e+00	3.680630e-05
9.039798e+00	3.223390e-33
9.090019e+00	1.300990e-35
9.140240e+00	6.774637e-34
9.190461e+00	2.520120e-33
9.240682e+00	1.845982e-39
9.290903e+00	5.334353e-04
9.341124e+00	3.342701e-03
9.391346e+00	7.456625e-33
9.441567e+00	8.891645e-03
9.491788e+00	3.511844e-04
9.542009e+00	2.421422e-04
9.592230e+00	2.186262e-02
9.642451e+00	3.353085e-02
9.692672e+00	1.662058e-04
9.742893e+00	1.701362e-08
9.793114e+00	3.357844e-03
9.843335e+00	8.724113e-09
9.893557e+00	1.145194e-32
9.943778e+00	8.329096e-41
9.993999e+00	2.321204e-05
1.004422e+01	2.832247e-02
1.009444e+01	4.239343e-09
1.014466e+01	1.279623e-02
1.019488e+01	3.100546e-07
1.024510e+01	3.123870e-38
1.029533e+01	2.368964e-32
1.034555e+01	0.000000e+00
1.039577e+01	0.000000e+00
1.044599e+01	1.461381e-33
1.049621e+01	8.946316e-03
1.054643e+01	4.846439e-08
1.059665e+01	4.905477e-35
1.064687e+01	4.896470e-05
1.069709e+01	3.384898e-05
1.074732e+01	6.739668e-33
1.079754e+01	1.422808e-05
1.084776e+01	1.685129e-03
1.089798e+01	1.505912e-08
1.094820e+01	5.775392e-03
1.099842e+01	4.424062e-37
1.104864e+01	1.294421e-33
1.109886e+01	7.277403e-03
1.114908e+01	2.086765e-04
1.119931e+01	0.000000e+00
1.124953e+01	0.000000e+00
1.129975e+01	1.026610e-06
1.134997e+01	1.117096e-02
1.140019e+01	1.001700e-07
1.145041e+01	3.942397e-02
1.150063e+01	1.079596e-02
1.155085e+01	0.000000e+00
1.160107e+01	3.641911e-05
1.165130e+01	3.132615e-03
1.170152e+01	3.447275e-04
1.175174e+01	1.366908e-06
1.180196e+01	4.333484e-32
1.185218e+01	7.181239e-36
1.190240e+01	0.000000e+00
1.195262e+01	1.427187e-04
1.200284e+01	1.222577e-03
1.205306e+01	1.028566e-05
1.210328e+01	3.433732e-10
1.215351e+01	2.257654e-02
1.220373e+01	1.783268e-03
1.225395e+01	8.084035e-04
1.230417e+01	9.048492e-34
1.235439e+01	1.909086e-33
1.240461e+01	2.754909e-33
1.245483e+01	1.036837e-07
1.250505e+01	9.146542e-03
1.255527e+01	1.434301e-06
1.260550e+01	1.143152e-02
1.265572e+01	4.943224e-09
1.270594e+01	6.573049e-03
1.275616e+01	4.833649e-05
1.280638e+01	2.556582e-02
1.285660e+01	2.464229e-02
1.290682e+01	7.877442e-03
1.295704e+01	0.000000e+00
1.300726e+01	0.000000e+00
1.305749e+01	5.798207e-07
1.310771e+01	1.298835e-03
1.315793e+01	4.488984e-04
1.320815e+01	6.616707e-06
1.325837e+01	3.406937e-03
1.330859e+01	4.879770e-33
1.335881e+01	6.850933e-34
1.340903e+01	8.469113e-04
1.345925e+01	3.417682e-06
1.350948e+01	1.675231e-04
1.355970e+01	8.814472e-02
1.360992e+01	1.197030e-10
1.366014e+01	2.394867e-07
1.371036e+01	5.360922e-04
1.376058e+01	3.048241e-02
1.381080e+01	8.060730e-03
1.386102e+01	1.456637e-03
1.391124e+01	9.601677e-11
1.396147e+01	0.000000e+00
1.401169e+01	1.602163e-05
1.406191e+01	1.343971e-04
1.411213e+01	5.684250e-05
1.416235e+01	7.032208e-03
1.421257e+01	1.790865e-07
1.426279e+01	1.579803e-02
1.431301e+01	3.176163e-38
1.436323e+01	8.237328e-05
1.441346e+01	2.167103e-03
1.446368e+01	4.857741e-08
1.451390e+01	1.953176e-10
1.456412e+01	2.951971e-03
1.461434e+01	7.589329e-10
1.466456e+01	2.636494e-03
1.471478e+01	4.843021e-04
1.476500e+01	2.783839e-02
1.481522e+01	1.662219e-04
1.486545e+01	1.184587e-32
1.491567e+01	2.600103e-39
1.496589e+01	1.504268e-34
1.500000e+01	2.658514e-33

File: li0.5tio2_li0.5tio2_8262.txt
# 2theta [deg]	I_scaled [a.u.]	Wavelength = 0.20721 Å
0.000000e+00	0.000000e+00
5.022110e-02	0.000000e+00
1.004422e-01	0.000000e+00
1.506633e-01	0.000000e+00
2.008844e-01	0.000000e+00
2.511055e-01	0.000000e+00
3.013266e-01	0.000000e+00
3.515477e-01	0.000000e+00
4.017688e-01	0.000000e+00
4.519899e-01	0.000000e+00
5.022110e-01	0.000000e+00
5.524321e-01	0.000000e+00
6.026532e-01	0.000000e+00
6.528743e-01	0.000000e+00
7.030954e-01	0.000000e+00
7.533165e-01	0.000000e+00
8.035376e-01	0.000000e+00
8.537587e-01	0.000000e+00
9.039798e-01	0.000000e+00
9.542009e-01	0.000000e+00
1.004422e+00	0.000000e+00
1.054643e+00	0.000000e+00
1.104864e+00	0.000000e+00
1.155085e+00	0.000000e+00
1.205306e+00	9.485263e-36
1.255527e+00	1.924688e-31
1.305749e+00	0.000000e+00
1.355970e+00	0.000000e+00
1.406191e+00	0.000000e+00
1.456412e+00	0.000000e+00
1.506633e+00	0.000000e+00
1.556854e+00	0.000000e+00
1.607075e+00	0.000000e+00
1.657296e+00	0.000000e+00
1.707517e+00	0.000000e+00
1.757738e+00	0.000000e+00
1.807960e+00	0.000000e+00
1.858181e+00	0.000000e+00
1.908402e+00	0.000000e+00
1.958623e+00	0.000000e+00
2.008844e+00	0.000000e+00
2.059065e+00	0.000000e+00
2.109286e+00	0.000000e+00
2.159507e+00	0.000000e+00
2.209728e+00	0.000000e+00
2.259949e+00	0.000000e+00
2.310171e+00	6.254087e-44
2.360392e+00	3.060764e-33
2.410613e+00	1.829174e-39
2.460834e+00	7.588216e-05
2.511055e+00	4.755053e-04
2.561276e+00	0.000000e+00
2.611497e+00	0.000000e+00
2.661718e+00	3.100337e-01
2.711939e+00	1.522442e-05
2.762160e+00	0.000000e+00
2.812382e+00	0.000000e+00
2.862603e+00	0.000000e+00
2.912824e+00	0.000000e+00
2.963045e+00	0.000000e+00
3.013266e+00	0.000000e+00
3.063487e+00	0.000000e+00
3.113708e+00	0.000000e+00
3.163929e+00	0.000000e+00
3.214150e+00	0.000000e+00
3.264371e+00	0.000000e+00
3.314593e+00	0.000000e+00
3.364814e+00	0.000000e+00
3.415035e+00	3.823276e-03
3.465256e+00	3.216560e-05
3.515477e+00	0.000000e+00
3.565698e+00	0.000000e+00
3.615919e+00	0.000000e+00
3.666140e+00	0.000000e+00
3.716361e+00	1.243178e-32
3.766582e+00	1.153815e-35
3.816804e+00	0.000000e+00
3.867025e+00	0.000000e+00
3.917246e+00	0.000000e+00
3.967467e+00	0.000000e+00
4.017688e+00	9.223361e-34
4.067909e+00	1.969049e-37
4.118130e+00	0.000000e+00
4.168351e+00	1.683757e-40
4.218572e+00	1.002856e-31
4.268793e+00	7.293862e-40
4.319015e+00	0.000000e+00
4.369236e+00	6.530241e-10
4.419457e+00	3.889455e-01
4.469678e+00	2.828834e-09
4.519899e+00	0.000000e+00
4.570120e+00	0.000000e+00
4.620341e+00	1.195660e-12
4.670562e+00	1.345978e-02
4.720783e+00	2.942497e-02
4.771004e+00	4.480981e-05
4.821226e+00	2.575663e-02
4.871447e+00	5.523715e-05
4.921668e+00	1.788208e-06
4.971889e+00	1.581694e-02
5.022110e+00	4.533461e-09
5.072331e+00	0.000000e+00
5.122552e+00	0.000000e+00
5.172773e+00	0.000000e+00
5.222994e+00	0.000000e+00
5.273215e+00	4.010684e-03
5.323437e+00	1.417921e-03
5.373658e+00	1.271187e-04
5.423879e+00	0.000000e+00
5.474100e+00	6.654392e-07
5.524321e+00	1.350266e-02
5.574542e+00	0.000000e+00
5.624763e+00	0.000000e+00
5.674984e+00	0.000000e+00
5.725205e+00	0.000000e+00
5.775426e+00	0.000000e+00
5.825648e+00	0.000000e+00
5.875869e+00	0.000000e+00
5.926090e+00	0.000000e+00
5.976311e+00	9.264386e-02
6.026532e+00	6.880981e-02
6.076753e+00	4.536507e-09
6.126974e+00	0.000000e+00
6.177195e+00	1.099821e-38
6.227416e+00	4.505009e-32
6.277637e+00	3.281660e-42
6.327858e+00	2.693114e-04
6.378080e+00	3.979290e-05
6.428301e+00	1.077259e-03
6.478522e+00	0.000000e+00
6.528743e+00	0.000000e+00
6.578964e+00	0.000000e+00
6.629185e+00	4.758891e-06
6.679406e+00	1.311336e-02
6.729627e+00	4.748873e-04
6.779848e+00	1.182095e-11
6.830069e+00	7.040951e-03
6.880291e+00	1.219262e-01
6.930512e+00	0.000000e+00
6.980733e+00	0.000000e+00
7.030954e+00	0.000000e+00
7.081175e+00	4.235454e-34
7.131396e+00	1.404251e-34
7.181617e+00	2.017817e-06
7.231838e+00	1.178074e-03
7.282059e+00	6.491866e-04
7.332280e+00	0.000000e+00
7.382502e+00	2.266301e-35
7.432723e+00	2.358562e-07
7.482944e+00	2.295307e-03
7.533165e+00	2.278773e-02
7.583386e+00	4.205630e-12
7.633607e+00	0.000000e+00
7.683828e+00	0.000000e+00
7.734049e+00	8.857697e-11
7.784270e+00	2.293593e-01
7.834491e+00	5.897564e-03
7.884713e+00	1.674958e-11
7.934934e+00	6.963338e-07
7.985155e+00	1.558790e-03
8.035376e+00	3.539044e-02
8.085597e+00	1.347224e-02
8.135818e+00	2.221079e-06
8.186039e+00	1.036668e-02
8.236260e+00	1.328654e-04
8.286481e+00	7.547114e-03
8.336702e+00	0.000000e+00
8.386924e+00	1.184876e-34
8.437145e+00	1.130728e-03
8.487366e+00	1.484580e-01
8.537587e+00	2.839609e-03
8.587808e+00	8.129735e-10
8.638029e+00	2.801860e-08
8.688250e+00	5.153599e-03
8.738471e+00	1.472644e-06
8.788692e+00	8.086038e-04
8.838913e+00	8.734209e-03
8.889135e+00	2.250890e-08
8.939356e+00	2.333616e-10
8.989577e+00	7.353921e-03
9.039798e+00	3.182611e-02
9.090019e+00	6.479781e-13
9.140240e+00	0.000000e+00
9.190461e+00	2.127237e-02
9.240682e+00	2.178037e-06
9.290903e+00	0.000000e+00
9.341124e+00	1.088912e-03
9.391346e+00	4.393706e-06
9.441567e+00	1.142081e-02
9.491788e+00	9.800435e-03
9.542009e+00	3.236697e-03
9.592230e+00	1.104893e-03
9.642451e+00	1.581980e-09
9.692672e+00	2.640540e-03
9.742893e+00	1.485390e-03
9.793114e+00	1.376998e-03
9.843335e+00	3.249160e-10
9.893557e+00	2.381010e-03
9.943778e+00	5.690385e-04
9.993999e+00	1.666096e-05
1.004422e+01	1.683043e-06
1.009444e+01	3.767497e-03
1.014466e+01	3.344176e-11
1.019488e+01	1.162587e-04
1.024510e+01	1.701315e-02
1.029533e+01	1.547717e-03
1.034555e+01	2.641464e-05
1.039577e+01	3.361654e-03
1.044599e+01	4.161424e-05
1.049621e+01	6.617119e-06
1.054643e+01	2.209762e-12
1.059665e+01	6.991564e-02
1.064687e+01	2.474117e-07
1.069709e+01	3.516824e-03
1.074732e+01	1.022808e-02
1.079754e+01	6.594262e-07
1.084776e+01	3.380288e-04
1.089798e+01	0.000000e+00
1.094820e+01	1.153575e-03
1.099842e+01	4.812515e-03
1.104864e+01	1.693370e-02
1.109886e+01	4.974314e-04
1.114908e+01	0.000000e+00
1.119931e+01	1.299345e-10
1.124953e+01	3.419864e-02
1.129975e+01	4.884183e-09
1.134997e+01	1.200417e-02
1.140019e+01	1.811050e-02
1.145041e+01	6.907256e-03
1.150063e+01	5.102947e-09
1.155085e+01	0.000000e+00
1.160107e+01	0.000000e+00
1.165130e+01	0.000000e+00
1.170152e+01	3.656257e-12
1.175174e+01	1.974010e-02
1.180196e+01	1.301432e-09
1.185218e+01	3.537469e-03
1.190240e+01	7.586510e-04
1.195262e+01	6.213266e-05
1.200284e+01	8.521080e-04
1.205306e+01	2.386043e-03
1.210328e+01	6.497982e-03
1.215351e+01	3.074078e-02
1.220373e+01	4.875340e-05
1.225395e+01	3.962019e-04
1.230417e+01	5.838602e-10
1.235439e+01	2.050177e-03
1.240461e+01	1.092915e-02
1.245483e+01	1.368472e-02
1.250505e+01	2.558370e-03
1.255527e+01	1.990931e-05
1.260550e+01	5.733780e-03
1.265572e+01	2.680067e-08
1.270594e+01	2.277344e-04
1.275616e+01	1.060463e-03
1.280638e+01	1.514527e-03
1.285660e+01	2.100279e-03
1.290682e+01	1.311968e-02
1.295704e+01	1.758888e-12
1.300726e+01	2.678282e-05
1.305749e+01	1.198250e-02
1.310771e+01	1.471686e-02
1.315793e+01	3.846115e-10
1.320815e+01	7.496880e-09
1.325837e+01	2.606337e-02
1.330859e+01	3.428313e-04
1.335881e+01	4.784827e-04
1.340903e+01	2.116894e-03
1.345925e+01	8.068022e-05
1.350948e+01	2.815560e-02
1.355970e+01	1.637222e-03
1.360992e+01	4.613497e-34
1.366014e+01	3.238490e-05
1.371036e+01	2.029356e-04
1.376058e+01	1.647610e-03
1.381080e+01	1.351655e-04
1.386102e+01	2.780667e-02
1.391124e+01	8.347759e-03
1.396147e+01	1.383630e-03
1.401169e+01	5.737142e-03
1.406191e+01	6.287745e-03
1.411213e+01	2.061357e-02
1.416235e+01	6.517896e-10
1.421257e+01	2.478576e-05
1.426279e+01	4.579832e-03
1.431301e+01	2.021003e-04
1.436323e+01	1.365246e-03
1.441346e+01	8.943151e-03
1.446368e+01	5.006974e-04
1.451390e+01	3.732552e-04
1.456412e+01	9.613705e-03
1.461434e+01	3.080063e-03
1.466456e+01	2.731392e-05
1.471478e+01	3.950169e-03
1.476500e+01	8.289093e-07
1.481522e+01	2.768779e-05
1.486545e+01	1.049924e-02
1.491567e+01	7.047306e-03
1.496589e+01	2.594756e-03
1.500000e+01	3.941819e-06

File: li0.5tio2_li2fev3o8_180011.txt
# 2theta [deg]	I_scaled [a.u.]	Wavelength = 0.20721 Å
0.000000e+00	0.000000e+00
5.022110e-02	0.000000e+00
1.004422e-01	0.000000e+00
1.506633e-01	0.000000e+00
2.008844e-01	0.000000e+00
2.511055e-01	0.000000e+00
3.013266e-01	0.000000e+00
3.515477e-01	0.000000e+00
4.017688e-01	0.000000e+00
4.519899e-01	0.000000e+00
5.022110e-01	0.000000e+00
5.524321e-01	0.000000e+00
6.026532e-01	0.000000e+00
6.528743e-01	0.000000e+00
7.030954e-01	0.000000e+00
7.533165e-01	0.000000e+00
8.035376e-01	0.000000e+00
8.537587e-01	0.000000e+00
9.039798e-01	0.000000e+00
9.542009e-01	1.216072e-37
1.004422e+00	1.837934e-30
1.054643e+00	3.392032e-40
1.104864e+00	0.000000e+00
1.155085e+00	0.000000e+00
1.205306e+00	0.000000e+00
1.255527e+00	0.000000e+00
1.305749e+00	0.000000e+00
1.355970e+00	0.000000e+00
1.406191e+00	0.000000e+00
1.456412e+00	0.000000e+00
1.506633e+00	0.000000e+00
1.556854e+00	0.000000e+00
1.607075e+00	0.000000e+00
1.657296e+00	0.000000e+00
1.707517e+00	0.000000e+00
1.757738e+00	0.000000e+00
1.807960e+00	0.000000e+00
1.858181e+00	8.552525e-35
1.908402e+00	1.791002e-02
1.958623e+00	2.847988e-03
2.008844e+00	1.655578e-01
2.059065e+00	3.370748e-12
2.109286e+00	0.000000e+00
2.159507e+00	0.000000e+00
2.209728e+00	0.000000e+00
2.259949e+00	0.000000e+00
2.310171e+00	2.910234e-02
2.360392e+00	7.561165e-08
2.410613e+00	4.160208e-33
2.460834e+00	1.521621e-34
2.511055e+00	0.000000e+00
2.561276e+00	0.000000e+00
2.611497e+00	0.000000e+00
2.661718e+00	0.000000e+00
2.711939e+00	0.000000e+00
2.762160e+00	0.000000e+00
2.812382e+00	0.000000e+00
2.862603e+00	0.000000e+00
2.912824e+00	0.000000e+00
2.963045e+00	3.995522e-37
3.013266e+00	7.685742e-32
3.063487e+00	2.566842e-34
3.113708e+00	1.377985e-32
3.163929e+00	2.898843e-03
3.214150e+00	6.190251e-07
3.264371e+00	8.951381e-01
3.314593e+00	5.901495e-08
3.364814e+00	0.000000e+00
3.415035e+00	0.000000e+00
3.465256e+00	0.000000e+00
3.515477e+00	0.000000e+00
3.565698e+00	0.000000e+00
3.615919e+00	1.142792e-05
3.666140e+00	4.179832e-07
3.716361e+00	1.428481e-11
3.766582e+00	3.698874e-02
3.816804e+00	5.338065e-08
3.867025e+00	4.681295e-01
3.917246e+00	7.460222e-05
3.967467e+00	8.316870e-03
4.017688e+00	5.592007e-02
4.067909e+00	1.569595e-34
4.118130e+00	2.231754e-32
4.168351e+00	0.000000e+00
4.218572e+00	0.000000e+00
4.268793e+00	8.998719e-12
4.319015e+00	2.116267e-01
4.369236e+00	2.566969e-03
4.419457e+00	1.390024e-34
4.469678e+00	1.816168e-33
4.519899e+00	0.000000e+00
4.570120e+00	0.000000e+00
4.620341e+00	9.245964e-03
4.670562e+00	7.778721e-05
4.720783e+00	0.000000e+00
4.771004e+00	1.474113e-10
4.821226e+00	4.210875e-02
4.871447e+00	2.804947e-03
4.921668e+00	2.433185e-04
4.971889e+00	3.179133e-03
5.022110e+00	2.414050e-32
5.072331e+00	2.442595e-04
5.122552e+00	4.494558e-04
5.172773e+00	2.653001e-03
5.222994e+00	0.000000e+00
5.273215e+00	2.253114e-03
5.323437e+00	2.091153e-06
5.373658e+00	0.000000e+00
5.423879e+00	0.000000e+00
5.474100e+00	3.358338e-11
5.524321e+00	4.600959e-03
5.574542e+00	7.697180e-12
5.624763e+00	8.903393e-36
5.674984e+00	4.822580e-06
5.725205e+00	3.842004e-01
5.775426e+00	2.610448e-02
5.825648e+00	4.579191e-04
5.875869e+00	4.435574e-06
5.926090e+00	1.954773e-06
5.976311e+00	4.920154e-05
6.026532e+00	3.949032e-04
6.076753e+00	6.378205e-02
6.126974e+00	1.159941e-05
6.177195e+00	7.271707e-05
6.227416e+00	4.675587e-01
6.277637e+00	8.629113e-11
6.327858e+00	2.237969e-06
6.378080e+00	5.046051e-02
6.428301e+00	5.591645e-05
6.478522e+00	3.510032e-04
6.528743e+00	3.704543e-02
6.578964e+00	5.094859e-08
6.629185e+00	1.166219e-03
6.679406e+00	1.802775e-02
6.729627e+00	6.306580e-09
6.779848e+00	8.389258e-32
6.830069e+00	1.186598e-03
6.880291e+00	1.961626e-04
6.930512e+00	3.493117e-02
6.980733e+00	2.395779e-03
7.030954e+00	7.958147e-09
7.081175e+00	4.330367e-07
7.131396e+00	2.021158e-03
7.181617e+00	1.891431e-33
7.231838e+00	7.018760e-10
7.282059e+00	1.060797e-02
7.332280e+00	1.814045e-01
7.382502e+00	1.270826e-01
7.432723e+00	7.154443e-05
7.482944e+00	8.933752e-33
7.533165e+00	4.495221e-02
7.583386e+00	4.866471e-03
7.633607e+00	2.720386e-03
7.683828e+00	3.815088e-03
7.734049e+00	3.198631e-04
7.784270e+00	4.343876e-03
7.834491e+00	4.852178e-03
7.884713e+00	1.289364e-04
7.934934e+00	9.460568e-02
7.985155e+00	4.067528e-02
8.035376e+00	9.662337e-03
8.085597e+00	5.546312e-02
8.135818e+00	1.230501e-06
8.186039e+00	3.957389e-05
8.236260e+00	2.168626e-02
8.286481e+00	2.359065e-08
8.336702e+00	5.120743e-03
8.386924e+00	5.692087e-06
8.437145e+00	1.551092e-02
8.487366e+00	1.065109e-02
8.537587e+00	3.694396e-04
8.587808e+00	7.414238e-07
8.638029e+00	1.797702e-04
8.688250e+00	1.675759e-02
8.738471e+00	3.804553e-07
8.788692e+00	5.742067e-04
8.838913e+00	1.225845e-07
8.889135e+00	9.484816e-04
8.939356e+00	2.024865e-07
8.989577e+00	4.155068e-32
9.039798e+00	2.756479e-32
9.090019e+00	6.178318e-11
9.140240e+00	8.464487e-03
9.190461e+00	2.666042e-04
9.240682e+00	4.917765e-02
9.290903e+00	1.183730e-02
9.341124e+00	1.410624e-02
9.391346e+00	3.452002e-02
9.441567e+00	2.275847e-09
9.491788e+00	7.774149e-03
9.542009e+00	2.080703e-03
9.592230e+00	3.233896e-03
9.642451e+00	1.116023e-02
9.692672e+00	2.708449e-03
9.742893e+00	1.064835e-02
9.793114e+00	3.955012e-02
9.843335e+00	9.189617e-04
9.893557e+00	1.426606e-03
9.943778e+00	6.732396e-03
9.993999e+00	3.153804e-06
1.004422e+01	6.774626e-03
1.009444e+01	7.901223e-08
1.014466e+01	3.179102e-02
1.019488e+01	3.136508e-02
1.024510e+01	1.788491e-06
1.029533e+01	4.974989e-03
1.034555e+01	8.179910e-05
1.039577e+01	1.024362e-03
1.044599e+01	4.514590e-04
1.049621e+01	1.472431e-02
1.054643e+01	2.738824e-04
1.059665e+01	1.389622e-05
1.064687e+01	7.889853e-04
1.069709e+01	1.032610e-13
1.074732e+01	5.578791e-04
1.079754e+01	1.432646e-03
1.084776e+01	2.996252e-04
1.089798e+01	3.234945e-03
1.094820e+01	1.578184e-03
1.099842e+01	2.600841e-05
1.104864e+01	1.357233e-02
1.109886e+01	2.001489e-08
1.114908e+01	7.880949e-03
1.119931e+01	2.355375e-02
1.124953e+01	2.947583e-04
1.129975e+01	3.294533e-04
1.134997e+01	1.773460e-04
1.140019e+01	3.700383e-03
1.145041e+01	2.372029e-02
1.150063e+01	7.870882e-02
1.155085e+01	4.397781e-03
1.160107e+01	2.286237e-02
1.165130e+01	2.374505e-04
1.170152e+01	7.150068e-03
1.175174e+01	9.082619e-04
1.180196e+01	2.847342e-02
1.185218e+01	5.986264e-03
1.190240e+01	1.795866e-03
1.195262e+01	1.402033e-05
1.200284e+01	9.137487e-03
1.205306e+01	3.656244e-03
1.210328e+01	1.980452e-08
1.215351e+01	1.547015e-04
1.220373e+01	1.250024e-02
1.225395e+01	1.054935e-11
1.230417e+01	1.235130e-04
1.235439e+01	2.053399e-02
1.240461e+01	3.913378e-07
1.245483e+01	1.455212e-02
1.250505e+01	1.182312e-05
1.255527e+01	4.718771e-05
1.260550e+01	3.039712e-03
1.265572e+01	1.447869e-02
1.270594e+01	2.277200e-03
1.275616e+01	6.532230e-04
1.280638e+01	3.476932e-02
1.285660e+01	3.477103e-03
1.290682e+01	1.133533e-02
1.295704e+01	3.089624e-03
1.300726e+01	2.478232e-04
1.305749e+01	3.055752e-02
1.310771e+01	4.286115e-03
1.315793e+01	2.396394e-03
1.320815e+01	1.718046e-03
1.325837e+01	1.244955e-04
1.330859e+01	2.133915e-02
1.335881e+01	1.773477e-02
1.340903e+01	1.921332e-02
1.345925e+01	3.447162e-03
1.350948e+01	1.431572e-07
1.355970e+01	9.506202e-04
1.360992e+01	8.073092e-05
1.366014e+01	2.949487e-04
1.371036e+01	1.085832e-02
1.376058e+01	4.165608e-02
1.381080e+01	6.582224e-04
1.386102e+01	2.480735e-03
1.391124e+01	4.938778e-05
1.396147e+01	5.071968e-04
1.401169e+01	1.830027e-02
1.406191e+01	3.261558e-03
1.411213e+01	1.401193e-02
1.416235e+01	1.921120e-03
1.421257e+01	6.335596e-04
1.426279e+01	1.480282e-02
1.431301e+01	9.580567e-03
1.436323e+01	1.272647e-03
1.441346e+01	2.052393e-03
1.446368e+01	2.482099e-02
1.451390e+01	3.492930e-04
1.456412e+01	8.397773e-04
1.461434e+01	1.514010e-04
1.466456e+01	1.425241e-04
1.471478e+01	1.036502e-03
1.476500e+01	1.753885e-02
1.481522e+01	5.674377e-03
1.486545e+01	8.613401e-03
1.491567e+01	8.641270e-03
1.496589e+01	5.045511e-03
1.500000e+01	1.063687e-06